#
# Results on Tue, 12 Nov 2024 22:02:12 GMT
# USER AGENT: Mozilla/5.0 (Macintosh; Intel Mac OS X 10_15_7) AppleWebKit/605.1.15 (KHTML, like Gecko) Version/18.1 Safari/605.1.15
# Design number was non-random = 0
#
# Columns below this comment are as follows:
# 1. Results reception time.
# 2. MD5 hash of participant's IP address.
# 3. Controller name.
# 4. Order number of item.
# 5. Inner element number.
# 6. Label.
# 7. Latin Square Group.
# 8. PennElementType.
# 9. PennElementName.
# 10. Parameter.
# 11. Value.
# 12. EventTime.
# 13. Comments.
1731448932,62d18837eecc59c9ed2ab13916ad4d97,PennController,1,0,consent,NULL,PennController,0,_Trial_,Start,1731448075293,NULL
1731448932,62d18837eecc59c9ed2ab13916ad4d97,PennController,1,0,consent,NULL,PennController,0,_Trial_,End,1731448163652,NULL
1731448932,62d18837eecc59c9ed2ab13916ad4d97,PennController,1,0,consent,NULL,Html,consent_form,consent,checked,1731448163652,checkbox
1731448932,62d18837eecc59c9ed2ab13916ad4d97,PennController,1,0,consent,NULL,Html,consent_form,prolific_id,673277e45a0fc36bf1d4efc6,1731448163652,text input
1731448932,62d18837eecc59c9ed2ab13916ad4d97,PennController,2,0,instruction-start,NULL,PennController,1,_Trial_,Start,1731448163653,NULL
1731448932,62d18837eecc59c9ed2ab13916ad4d97,PennController,2,0,instruction-start,NULL,PennController,1,_Trial_,End,1731448173239,NULL
1731448932,62d18837eecc59c9ed2ab13916ad4d97,PennController,3,0,instruction-gumball,NULL,PennController,2,_Trial_,Start,1731448173241,NULL
1731448932,62d18837eecc59c9ed2ab13916ad4d97,PennController,3,0,instruction-gumball,NULL,PennController,2,_Trial_,End,1731448184315,NULL
1731448932,62d18837eecc59c9ed2ab13916ad4d97,PennController,4,0,instruction-A-1,NULL,PennController,3,_Trial_,Start,1731448184316,NULL
1731448932,62d18837eecc59c9ed2ab13916ad4d97,PennController,4,0,instruction-A-1,NULL,PennController,3,_Trial_,End,1731448191332,NULL
1731448932,62d18837eecc59c9ed2ab13916ad4d97,PennController,5,0,check-A-1,NULL,Button,go-back,Click,NA,Never,NULL
1731448932,62d18837eecc59c9ed2ab13916ad4d97,PennController,5,0,check-A-1,NULL,PennController,4,_Trial_,Start,1731448191333,NULL
1731448932,62d18837eecc59c9ed2ab13916ad4d97,PennController,5,0,check-A-1,NULL,Button,proceed,Click,Click,1731448201167,NULL
1731448932,62d18837eecc59c9ed2ab13916ad4d97,PennController,5,0,check-A-1,NULL,PennController,4,_Trial_,End,1731448201168,NULL
1731448932,62d18837eecc59c9ed2ab13916ad4d97,PennController,6,0,instruction-slider-1,NULL,PennController,5,_Trial_,Start,1731448201169,NULL
1731448932,62d18837eecc59c9ed2ab13916ad4d97,PennController,6,0,instruction-slider-1,NULL,PennController,5,_Trial_,End,1731448224784,NULL
1731448932,62d18837eecc59c9ed2ab13916ad4d97,PennController,7,0,check-slider-1,NULL,PennController,6,_Trial_,Start,1731448224785,NULL
1731448932,62d18837eecc59c9ed2ab13916ad4d97,PennController,7,0,check-slider-1,NULL,Button,proceed,Click,Click,1731448236333,NULL
1731448932,62d18837eecc59c9ed2ab13916ad4d97,PennController,7,0,check-slider-1,NULL,PennController,6,_Trial_,End,1731448236335,NULL
1731448932,62d18837eecc59c9ed2ab13916ad4d97,PennController,8,0,practice-start,NULL,PennController,7,_Trial_,Start,1731448236337,NULL
1731448932,62d18837eecc59c9ed2ab13916ad4d97,PennController,8,0,practice-start,NULL,PennController,7,_Trial_,End,1731448242348,NULL
# 13. id.
# 14. group.
# 15. Comments.
1731448932,62d18837eecc59c9ed2ab13916ad4d97,PennController,9,0,practice,NULL,PennController,18,_Trial_,Start,1731448242349,g_p9,a,NULL
1731448932,62d18837eecc59c9ed2ab13916ad4d97,PennController,9,0,practice,NULL,Image,image,Print,NA,1731448242350,g_p9,a,NULL
1731448932,62d18837eecc59c9ed2ab13916ad4d97,PennController,9,0,practice,NULL,Scale,slider-3,Default,0,1731448242351,g_p9,a,slider
1731448932,62d18837eecc59c9ed2ab13916ad4d97,PennController,9,0,practice,NULL,Scale,slider-1,Default,0,1731448242351,g_p9,a,slider
1731448932,62d18837eecc59c9ed2ab13916ad4d97,PennController,9,0,practice,NULL,Scale,slider-2,Choice,100,1731448251016,g_p9,a,368
1731448932,62d18837eecc59c9ed2ab13916ad4d97,PennController,9,0,practice,NULL,PennController,18,_Trial_,End,1731448253068,g_p9,a,NULL
1731448932,62d18837eecc59c9ed2ab13916ad4d97,PennController,10,0,practice,NULL,PennController,19,_Trial_,Start,1731448253070,g_p1,a,NULL
1731448932,62d18837eecc59c9ed2ab13916ad4d97,PennController,10,0,practice,NULL,Scale,slider-1,Default,0,1731448253071,g_p1,a,slider
1731448932,62d18837eecc59c9ed2ab13916ad4d97,PennController,10,0,practice,NULL,Image,image,Print,NA,1731448253071,g_p1,a,NULL
1731448932,62d18837eecc59c9ed2ab13916ad4d97,PennController,10,0,practice,NULL,Scale,slider-3,Default,0,1731448253072,g_p1,a,slider
1731448932,62d18837eecc59c9ed2ab13916ad4d97,PennController,10,0,practice,NULL,Scale,slider-2,Choice,100,1731448269216,g_p1,a,486
1731448932,62d18837eecc59c9ed2ab13916ad4d97,PennController,10,0,practice,NULL,PennController,19,_Trial_,End,1731448270150,g_p1,a,NULL
1731448932,62d18837eecc59c9ed2ab13916ad4d97,PennController,11,0,practice,NULL,PennController,20,_Trial_,Start,1731448270152,g_o9,a,NULL
1731448932,62d18837eecc59c9ed2ab13916ad4d97,PennController,11,0,practice,NULL,Image,image,Print,NA,1731448270153,g_o9,a,NULL
1731448932,62d18837eecc59c9ed2ab13916ad4d97,PennController,11,0,practice,NULL,Scale,slider-3,Default,0,1731448270154,g_o9,a,slider
1731448932,62d18837eecc59c9ed2ab13916ad4d97,PennController,11,0,practice,NULL,Scale,slider-2,Choice,0,1731448284881,g_o9,a,251
1731448932,62d18837eecc59c9ed2ab13916ad4d97,PennController,11,0,practice,NULL,Scale,slider-1,Choice,100,1731448287882,g_o9,a,201
1731448932,62d18837eecc59c9ed2ab13916ad4d97,PennController,11,0,practice,NULL,PennController,20,_Trial_,End,1731448288650,g_o9,a,NULL
1731448932,62d18837eecc59c9ed2ab13916ad4d97,PennController,12,0,practice,NULL,PennController,21,_Trial_,Start,1731448288652,g_o9,a,NULL
1731448932,62d18837eecc59c9ed2ab13916ad4d97,PennController,12,0,practice,NULL,Selector,selection,Selection,correct,1731448291549,g_o9,a,correct;incorrect
1731448932,62d18837eecc59c9ed2ab13916ad4d97,PennController,12,0,practice,NULL,PennController,21,_Trial_,End,1731448292500,g_o9,a,NULL
1731448932,62d18837eecc59c9ed2ab13916ad4d97,PennController,13,0,practice,NULL,PennController,22,_Trial_,Start,1731448292502,g_o1,a,NULL
1731448932,62d18837eecc59c9ed2ab13916ad4d97,PennController,13,0,practice,NULL,Image,image,Print,NA,1731448292503,g_o1,a,NULL
1731448932,62d18837eecc59c9ed2ab13916ad4d97,PennController,13,0,practice,NULL,Scale,slider-3,Default,0,1731448292504,g_o1,a,slider
1731448932,62d18837eecc59c9ed2ab13916ad4d97,PennController,13,0,practice,NULL,Scale,slider-1,Default,0,1731448292504,g_o1,a,slider
1731448932,62d18837eecc59c9ed2ab13916ad4d97,PennController,13,0,practice,NULL,Scale,slider-2,Choice,97,1731448297399,g_o1,a,302
1731448932,62d18837eecc59c9ed2ab13916ad4d97,PennController,13,0,practice,NULL,PennController,22,_Trial_,End,1731448298466,g_o1,a,NULL
# 13. Comments.
1731448932,62d18837eecc59c9ed2ab13916ad4d97,PennController,14,0,practice-end,NULL,PennController,8,_Trial_,Start,1731448298468,NULL
1731448932,62d18837eecc59c9ed2ab13916ad4d97,PennController,14,0,practice-end,NULL,PennController,8,_Trial_,End,1731448300015,NULL
# 13. id.
# 14. group.
# 15. Comments.
1731448932,62d18837eecc59c9ed2ab13916ad4d97,PennController,15,0,trials-gumball,NULL,PennController,23,_Trial_,Start,1731448300017,g_p3,a,NULL
1731448932,62d18837eecc59c9ed2ab13916ad4d97,PennController,15,0,trials-gumball,NULL,Image,image,Print,NA,1731448300018,g_p3,a,NULL
1731448932,62d18837eecc59c9ed2ab13916ad4d97,PennController,15,0,trials-gumball,NULL,Scale,slider-1,Default,0,1731448300019,g_p3,a,slider
1731448932,62d18837eecc59c9ed2ab13916ad4d97,PennController,15,0,trials-gumball,NULL,Scale,slider-2,Choice,100,1731448306583,g_p3,a,269
1731448932,62d18837eecc59c9ed2ab13916ad4d97,PennController,15,0,trials-gumball,NULL,Scale,slider-3,Choice,32,1731448310131,g_p3,a,501
1731448932,62d18837eecc59c9ed2ab13916ad4d97,PennController,15,0,trials-gumball,NULL,PennController,23,_Trial_,End,1731448311733,g_p3,a,NULL
1731448932,62d18837eecc59c9ed2ab13916ad4d97,PennController,16,0,trials-gumball,NULL,PennController,24,_Trial_,Start,1731448311735,g_p5,a,NULL
1731448932,62d18837eecc59c9ed2ab13916ad4d97,PennController,16,0,trials-gumball,NULL,Image,image,Print,NA,1731448311736,g_p5,a,NULL
1731448932,62d18837eecc59c9ed2ab13916ad4d97,PennController,16,0,trials-gumball,NULL,Scale,slider-1,Default,0,1731448311737,g_p5,a,slider
1731448932,62d18837eecc59c9ed2ab13916ad4d97,PennController,16,0,trials-gumball,NULL,Scale,slider-2,Choice,100,1731448316531,g_p5,a,784
1731448932,62d18837eecc59c9ed2ab13916ad4d97,PennController,16,0,trials-gumball,NULL,Scale,slider-3,Choice,35,1731448318064,g_p5,a,684
1731448932,62d18837eecc59c9ed2ab13916ad4d97,PennController,16,0,trials-gumball,NULL,PennController,24,_Trial_,End,1731448320005,g_p5,a,NULL
1731448932,62d18837eecc59c9ed2ab13916ad4d97,PennController,17,0,trials-gumball,NULL,PennController,25,_Trial_,Start,1731448320007,g_p5,a,NULL
1731448932,62d18837eecc59c9ed2ab13916ad4d97,PennController,17,0,trials-gumball,NULL,Selector,selection,Selection,incorrect,1731448323514,g_p5,a,correct;incorrect
1731448932,62d18837eecc59c9ed2ab13916ad4d97,PennController,17,0,trials-gumball,NULL,PennController,25,_Trial_,End,1731448324233,g_p5,a,NULL
1731448932,62d18837eecc59c9ed2ab13916ad4d97,PennController,18,0,trials-gumball,NULL,PennController,26,_Trial_,Start,1731448324234,g_p8,a,NULL
1731448932,62d18837eecc59c9ed2ab13916ad4d97,PennController,18,0,trials-gumball,NULL,Image,image,Print,NA,1731448324235,g_p8,a,NULL
1731448932,62d18837eecc59c9ed2ab13916ad4d97,PennController,18,0,trials-gumball,NULL,Scale,slider-3,Default,0,1731448324236,g_p8,a,slider
1731448932,62d18837eecc59c9ed2ab13916ad4d97,PennController,18,0,trials-gumball,NULL,Scale,slider-1,Choice,100,1731448332449,g_p8,a,703
1731448932,62d18837eecc59c9ed2ab13916ad4d97,PennController,18,0,trials-gumball,NULL,Scale,slider-2,Choice,39,1731448334064,g_p8,a,601
1731448932,62d18837eecc59c9ed2ab13916ad4d97,PennController,18,0,trials-gumball,NULL,PennController,26,_Trial_,End,1731448335316,g_p8,a,NULL
1731448932,62d18837eecc59c9ed2ab13916ad4d97,PennController,19,0,trials-gumball,NULL,PennController,27,_Trial_,Start,1731448335318,g_o1,a,NULL
1731448932,62d18837eecc59c9ed2ab13916ad4d97,PennController,19,0,trials-gumball,NULL,Image,image,Print,NA,1731448335319,g_o1,a,NULL
1731448932,62d18837eecc59c9ed2ab13916ad4d97,PennController,19,0,trials-gumball,NULL,Scale,slider-1,Choice,0,1731448342231,g_o1,a,718
1731448932,62d18837eecc59c9ed2ab13916ad4d97,PennController,19,0,trials-gumball,NULL,Scale,slider-2,Choice,55,1731448346064,g_o1,a,718
1731448932,62d18837eecc59c9ed2ab13916ad4d97,PennController,19,0,trials-gumball,NULL,Scale,slider-3,Choice,100,1731448347280,g_o1,a,348
1731448932,62d18837eecc59c9ed2ab13916ad4d97,PennController,19,0,trials-gumball,NULL,PennController,27,_Trial_,End,1731448348383,g_o1,a,NULL
1731448932,62d18837eecc59c9ed2ab13916ad4d97,PennController,20,0,trials-gumball,NULL,PennController,28,_Trial_,Start,1731448348386,g_o1,a,NULL
1731448932,62d18837eecc59c9ed2ab13916ad4d97,PennController,20,0,trials-gumball,NULL,Selector,selection,Selection,correct,1731448350414,g_o1,a,incorrect;correct
1731448932,62d18837eecc59c9ed2ab13916ad4d97,PennController,20,0,trials-gumball,NULL,PennController,28,_Trial_,End,1731448351282,g_o1,a,NULL
1731448932,62d18837eecc59c9ed2ab13916ad4d97,PennController,21,0,trials-gumball,NULL,Image,image,Print,NA,1731448351283,g_o3,a,NULL
1731448932,62d18837eecc59c9ed2ab13916ad4d97,PennController,21,0,trials-gumball,NULL,PennController,29,_Trial_,Start,1731448351283,g_o3,a,NULL
1731448932,62d18837eecc59c9ed2ab13916ad4d97,PennController,21,0,trials-gumball,NULL,Scale,slider-3,Default,0,1731448351284,g_o3,a,slider
1731448932,62d18837eecc59c9ed2ab13916ad4d97,PennController,21,0,trials-gumball,NULL,Scale,slider-1,Default,0,1731448351284,g_o3,a,slider
1731448932,62d18837eecc59c9ed2ab13916ad4d97,PennController,21,0,trials-gumball,NULL,Scale,slider-2,Choice,100,1731448358680,g_o3,a,467
1731448932,62d18837eecc59c9ed2ab13916ad4d97,PennController,21,0,trials-gumball,NULL,PennController,29,_Trial_,End,1731448361417,g_o3,a,NULL
1731448932,62d18837eecc59c9ed2ab13916ad4d97,PennController,22,0,trials-gumball,NULL,PennController,30,_Trial_,Start,1731448361418,g_o3,a,NULL
1731448932,62d18837eecc59c9ed2ab13916ad4d97,PennController,22,0,trials-gumball,NULL,Selector,selection,Selection,correct,1731448363014,g_o3,a,incorrect;correct
1731448932,62d18837eecc59c9ed2ab13916ad4d97,PennController,22,0,trials-gumball,NULL,PennController,30,_Trial_,End,1731448364182,g_o3,a,NULL
1731448932,62d18837eecc59c9ed2ab13916ad4d97,PennController,23,0,trials-gumball,NULL,PennController,31,_Trial_,Start,1731448364184,g_o5,a,NULL
1731448932,62d18837eecc59c9ed2ab13916ad4d97,PennController,23,0,trials-gumball,NULL,Scale,slider-3,Default,0,1731448364185,g_o5,a,slider
1731448932,62d18837eecc59c9ed2ab13916ad4d97,PennController,23,0,trials-gumball,NULL,Scale,slider-1,Default,0,1731448364185,g_o5,a,slider
1731448932,62d18837eecc59c9ed2ab13916ad4d97,PennController,23,0,trials-gumball,NULL,Image,image,Print,NA,1731448364185,g_o5,a,NULL
1731448932,62d18837eecc59c9ed2ab13916ad4d97,PennController,23,0,trials-gumball,NULL,Scale,slider-2,Choice,100,1731448370032,g_o5,a,286
1731448932,62d18837eecc59c9ed2ab13916ad4d97,PennController,23,0,trials-gumball,NULL,PennController,31,_Trial_,End,1731448371532,g_o5,a,NULL
1731448932,62d18837eecc59c9ed2ab13916ad4d97,PennController,24,0,trials-gumball,NULL,PennController,32,_Trial_,Start,1731448371533,g_p9,a,NULL
1731448932,62d18837eecc59c9ed2ab13916ad4d97,PennController,24,0,trials-gumball,NULL,Image,image,Print,NA,1731448371534,g_p9,a,NULL
1731448932,62d18837eecc59c9ed2ab13916ad4d97,PennController,24,0,trials-gumball,NULL,Scale,slider-3,Default,0,1731448371535,g_p9,a,slider
1731448932,62d18837eecc59c9ed2ab13916ad4d97,PennController,24,0,trials-gumball,NULL,Scale,slider-2,Default,0,1731448371535,g_p9,a,slider
1731448932,62d18837eecc59c9ed2ab13916ad4d97,PennController,24,0,trials-gumball,NULL,Scale,slider-1,Choice,100,1731448375047,g_p9,a,301
1731448932,62d18837eecc59c9ed2ab13916ad4d97,PennController,24,0,trials-gumball,NULL,PennController,32,_Trial_,End,1731448376815,g_p9,a,NULL
1731448932,62d18837eecc59c9ed2ab13916ad4d97,PennController,25,0,trials-gumball,NULL,PennController,33,_Trial_,Start,1731448376817,g_p9,a,NULL
1731448932,62d18837eecc59c9ed2ab13916ad4d97,PennController,25,0,trials-gumball,NULL,Selector,selection,Selection,correct,1731448378214,g_p9,a,correct;incorrect
1731448932,62d18837eecc59c9ed2ab13916ad4d97,PennController,25,0,trials-gumball,NULL,PennController,33,_Trial_,End,1731448379065,g_p9,a,NULL
1731448932,62d18837eecc59c9ed2ab13916ad4d97,PennController,26,0,trials-gumball,NULL,PennController,34,_Trial_,Start,1731448379067,g_o8,a,NULL
1731448932,62d18837eecc59c9ed2ab13916ad4d97,PennController,26,0,trials-gumball,NULL,Scale,slider-2,Default,0,1731448379068,g_o8,a,slider
1731448932,62d18837eecc59c9ed2ab13916ad4d97,PennController,26,0,trials-gumball,NULL,Image,image,Print,NA,1731448379068,g_o8,a,NULL
1731448932,62d18837eecc59c9ed2ab13916ad4d97,PennController,26,0,trials-gumball,NULL,Scale,slider-3,Default,0,1731448379069,g_o8,a,slider
1731448932,62d18837eecc59c9ed2ab13916ad4d97,PennController,26,0,trials-gumball,NULL,Scale,slider-1,Choice,100,1731448383513,g_o8,a,501
1731448932,62d18837eecc59c9ed2ab13916ad4d97,PennController,26,0,trials-gumball,NULL,PennController,34,_Trial_,End,1731448387600,g_o8,a,NULL
1731448932,62d18837eecc59c9ed2ab13916ad4d97,PennController,27,0,trials-gumball,NULL,PennController,35,_Trial_,Start,1731448387602,g_o7,a,NULL
1731448932,62d18837eecc59c9ed2ab13916ad4d97,PennController,27,0,trials-gumball,NULL,Scale,slider-2,Default,0,1731448387603,g_o7,a,slider
1731448932,62d18837eecc59c9ed2ab13916ad4d97,PennController,27,0,trials-gumball,NULL,Image,image,Print,NA,1731448387603,g_o7,a,NULL
1731448932,62d18837eecc59c9ed2ab13916ad4d97,PennController,27,0,trials-gumball,NULL,Scale,slider-3,Default,0,1731448387604,g_o7,a,slider
1731448932,62d18837eecc59c9ed2ab13916ad4d97,PennController,27,0,trials-gumball,NULL,Scale,slider-1,Choice,100,1731448391614,g_o7,a,345
1731448932,62d18837eecc59c9ed2ab13916ad4d97,PennController,27,0,trials-gumball,NULL,PennController,35,_Trial_,End,1731448392749,g_o7,a,NULL
1731448932,62d18837eecc59c9ed2ab13916ad4d97,PennController,28,0,trials-gumball,NULL,Image,image,Print,NA,1731448392751,g_p2,a,NULL
1731448932,62d18837eecc59c9ed2ab13916ad4d97,PennController,28,0,trials-gumball,NULL,PennController,36,_Trial_,Start,1731448392751,g_p2,a,NULL
1731448932,62d18837eecc59c9ed2ab13916ad4d97,PennController,28,0,trials-gumball,NULL,Scale,slider-1,Default,0,1731448392752,g_p2,a,slider
1731448932,62d18837eecc59c9ed2ab13916ad4d97,PennController,28,0,trials-gumball,NULL,Scale,slider-2,Choice,54,1731448397996,g_p2,a,583
1731448932,62d18837eecc59c9ed2ab13916ad4d97,PennController,28,0,trials-gumball,NULL,Scale,slider-3,Choice,26,1731448402532,g_p2,a,936
1731448932,62d18837eecc59c9ed2ab13916ad4d97,PennController,28,0,trials-gumball,NULL,PennController,36,_Trial_,End,1731448403515,g_p2,a,NULL
1731448932,62d18837eecc59c9ed2ab13916ad4d97,PennController,29,0,trials-gumball,NULL,PennController,37,_Trial_,Start,1731448403517,g_p1,a,NULL
1731448932,62d18837eecc59c9ed2ab13916ad4d97,PennController,29,0,trials-gumball,NULL,Scale,slider-1,Default,0,1731448403518,g_p1,a,slider
1731448932,62d18837eecc59c9ed2ab13916ad4d97,PennController,29,0,trials-gumball,NULL,Image,image,Print,NA,1731448403518,g_p1,a,NULL
1731448932,62d18837eecc59c9ed2ab13916ad4d97,PennController,29,0,trials-gumball,NULL,Scale,slider-2,Choice,52,1731448408096,g_p1,a,1257
1731448932,62d18837eecc59c9ed2ab13916ad4d97,PennController,29,0,trials-gumball,NULL,Scale,slider-3,Choice,100,1731448409197,g_p1,a,202
1731448932,62d18837eecc59c9ed2ab13916ad4d97,PennController,29,0,trials-gumball,NULL,PennController,37,_Trial_,End,1731448410282,g_p1,a,NULL
1731448932,62d18837eecc59c9ed2ab13916ad4d97,PennController,30,0,trials-gumball,NULL,PennController,38,_Trial_,Start,1731448410284,g_p1,a,NULL
1731448932,62d18837eecc59c9ed2ab13916ad4d97,PennController,30,0,trials-gumball,NULL,Selector,selection,Selection,correct,1731448411863,g_p1,a,incorrect;correct
1731448932,62d18837eecc59c9ed2ab13916ad4d97,PennController,30,0,trials-gumball,NULL,PennController,38,_Trial_,End,1731448412531,g_p1,a,NULL
1731448932,62d18837eecc59c9ed2ab13916ad4d97,PennController,31,0,trials-gumball,NULL,PennController,39,_Trial_,Start,1731448412532,g_p6,a,NULL
1731448932,62d18837eecc59c9ed2ab13916ad4d97,PennController,31,0,trials-gumball,NULL,Image,image,Print,NA,1731448412533,g_p6,a,NULL
1731448932,62d18837eecc59c9ed2ab13916ad4d97,PennController,31,0,trials-gumball,NULL,Scale,slider-3,Default,0,1731448412534,g_p6,a,slider
1731448932,62d18837eecc59c9ed2ab13916ad4d97,PennController,31,0,trials-gumball,NULL,Scale,slider-2,Choice,100,1731448417798,g_p6,a,752
1731448932,62d18837eecc59c9ed2ab13916ad4d97,PennController,31,0,trials-gumball,NULL,Scale,slider-1,Choice,29,1731448423146,g_p6,a,3300
1731448932,62d18837eecc59c9ed2ab13916ad4d97,PennController,31,0,trials-gumball,NULL,PennController,39,_Trial_,End,1731448424115,g_p6,a,NULL
1731448932,62d18837eecc59c9ed2ab13916ad4d97,PennController,32,0,trials-gumball,NULL,PennController,40,_Trial_,Start,1731448424117,g_p7,a,NULL
1731448932,62d18837eecc59c9ed2ab13916ad4d97,PennController,32,0,trials-gumball,NULL,Image,image,Print,NA,1731448424118,g_p7,a,NULL
1731448932,62d18837eecc59c9ed2ab13916ad4d97,PennController,32,0,trials-gumball,NULL,Scale,slider-3,Default,0,1731448424119,g_p7,a,slider
1731448932,62d18837eecc59c9ed2ab13916ad4d97,PennController,32,0,trials-gumball,NULL,Scale,slider-2,Choice,100,1731448430528,g_p7,a,616
1731448932,62d18837eecc59c9ed2ab13916ad4d97,PennController,32,0,trials-gumball,NULL,Scale,slider-1,Choice,38,1731448432346,g_p7,a,735
1731448932,62d18837eecc59c9ed2ab13916ad4d97,PennController,32,0,trials-gumball,NULL,PennController,40,_Trial_,End,1731448434398,g_p7,a,NULL
1731448932,62d18837eecc59c9ed2ab13916ad4d97,PennController,33,0,trials-gumball,NULL,PennController,41,_Trial_,Start,1731448434399,g_p7,a,NULL
1731448932,62d18837eecc59c9ed2ab13916ad4d97,PennController,33,0,trials-gumball,NULL,Selector,selection,Selection,correct,1731448436229,g_p7,a,incorrect;correct
1731448932,62d18837eecc59c9ed2ab13916ad4d97,PennController,33,0,trials-gumball,NULL,PennController,41,_Trial_,End,1731448437315,g_p7,a,NULL
1731448932,62d18837eecc59c9ed2ab13916ad4d97,PennController,34,0,trials-gumball,NULL,PennController,42,_Trial_,Start,1731448437316,g_o4,a,NULL
1731448932,62d18837eecc59c9ed2ab13916ad4d97,PennController,34,0,trials-gumball,NULL,Image,image,Print,NA,1731448437317,g_o4,a,NULL
1731448932,62d18837eecc59c9ed2ab13916ad4d97,PennController,34,0,trials-gumball,NULL,Scale,slider-3,Default,0,1731448437318,g_o4,a,slider
1731448932,62d18837eecc59c9ed2ab13916ad4d97,PennController,34,0,trials-gumball,NULL,Scale,slider-1,Default,0,1731448437318,g_o4,a,slider
1731448932,62d18837eecc59c9ed2ab13916ad4d97,PennController,34,0,trials-gumball,NULL,Scale,slider-2,Choice,100,1731448442446,g_o4,a,251
1731448932,62d18837eecc59c9ed2ab13916ad4d97,PennController,34,0,trials-gumball,NULL,PennController,42,_Trial_,End,1731448443980,g_o4,a,NULL
1731448932,62d18837eecc59c9ed2ab13916ad4d97,PennController,35,0,trials-gumball,NULL,PennController,43,_Trial_,Start,1731448443982,g_o4,a,NULL
1731448932,62d18837eecc59c9ed2ab13916ad4d97,PennController,35,0,trials-gumball,NULL,Selector,selection,Selection,correct,1731448448012,g_o4,a,incorrect;correct
1731448932,62d18837eecc59c9ed2ab13916ad4d97,PennController,35,0,trials-gumball,NULL,PennController,43,_Trial_,End,1731448450647,g_o4,a,NULL
1731448932,62d18837eecc59c9ed2ab13916ad4d97,PennController,36,0,trials-gumball,NULL,PennController,44,_Trial_,Start,1731448450649,g_o2,a,NULL
1731448932,62d18837eecc59c9ed2ab13916ad4d97,PennController,36,0,trials-gumball,NULL,Scale,slider-1,Default,0,1731448450650,g_o2,a,slider
1731448932,62d18837eecc59c9ed2ab13916ad4d97,PennController,36,0,trials-gumball,NULL,Image,image,Print,NA,1731448450650,g_o2,a,NULL
1731448932,62d18837eecc59c9ed2ab13916ad4d97,PennController,36,0,trials-gumball,NULL,Scale,slider-2,Choice,24,1731448456464,g_o2,a,919
1731448932,62d18837eecc59c9ed2ab13916ad4d97,PennController,36,0,trials-gumball,NULL,Scale,slider-3,Choice,85,1731448458080,g_o2,a,518
1731448932,62d18837eecc59c9ed2ab13916ad4d97,PennController,36,0,trials-gumball,NULL,PennController,44,_Trial_,End,1731448461083,g_o2,a,NULL
1731448932,62d18837eecc59c9ed2ab13916ad4d97,PennController,37,0,trials-gumball,NULL,PennController,45,_Trial_,Start,1731448461085,g_p4,a,NULL
1731448932,62d18837eecc59c9ed2ab13916ad4d97,PennController,37,0,trials-gumball,NULL,Image,image,Print,NA,1731448461086,g_p4,a,NULL
1731448932,62d18837eecc59c9ed2ab13916ad4d97,PennController,37,0,trials-gumball,NULL,Scale,slider-1,Default,0,1731448461087,g_p4,a,slider
1731448932,62d18837eecc59c9ed2ab13916ad4d97,PennController,37,0,trials-gumball,NULL,Scale,slider-3,Default,0,1731448461088,g_p4,a,slider
1731448932,62d18837eecc59c9ed2ab13916ad4d97,PennController,37,0,trials-gumball,NULL,Scale,slider-2,Choice,100,1731448464646,g_p4,a,664
1731448932,62d18837eecc59c9ed2ab13916ad4d97,PennController,37,0,trials-gumball,NULL,PennController,45,_Trial_,End,1731448467814,g_p4,a,NULL
1731448932,62d18837eecc59c9ed2ab13916ad4d97,PennController,38,0,trials-gumball,NULL,PennController,46,_Trial_,Start,1731448467816,g_o6,a,NULL
1731448932,62d18837eecc59c9ed2ab13916ad4d97,PennController,38,0,trials-gumball,NULL,Scale,slider-3,Default,0,1731448467817,g_o6,a,slider
1731448932,62d18837eecc59c9ed2ab13916ad4d97,PennController,38,0,trials-gumball,NULL,Image,image,Print,NA,1731448467817,g_o6,a,NULL
1731448932,62d18837eecc59c9ed2ab13916ad4d97,PennController,38,0,trials-gumball,NULL,Scale,slider-2,Choice,100,1731448471196,g_o6,a,325
1731448932,62d18837eecc59c9ed2ab13916ad4d97,PennController,38,0,trials-gumball,NULL,Scale,slider-1,Choice,31,1731448472831,g_o6,a,720
1731448932,62d18837eecc59c9ed2ab13916ad4d97,PennController,38,0,trials-gumball,NULL,PennController,46,_Trial_,End,1731448474497,g_o6,a,NULL
1731448932,62d18837eecc59c9ed2ab13916ad4d97,PennController,39,0,trials-gumball,NULL,PennController,47,_Trial_,Start,1731448474499,g_o9,a,NULL
1731448932,62d18837eecc59c9ed2ab13916ad4d97,PennController,39,0,trials-gumball,NULL,Scale,slider-3,Default,0,1731448474500,g_o9,a,slider
1731448932,62d18837eecc59c9ed2ab13916ad4d97,PennController,39,0,trials-gumball,NULL,Image,image,Print,NA,1731448474500,g_o9,a,NULL
1731448932,62d18837eecc59c9ed2ab13916ad4d97,PennController,39,0,trials-gumball,NULL,Scale,slider-1,Choice,100,1731448477412,g_o9,a,184
1731448932,62d18837eecc59c9ed2ab13916ad4d97,PennController,39,0,trials-gumball,NULL,Scale,slider-2,Choice,0,1731448481946,g_o9,a,201
1731448932,62d18837eecc59c9ed2ab13916ad4d97,PennController,39,0,trials-gumball,NULL,PennController,47,_Trial_,End,1731448483281,g_o9,a,NULL
1731448932,62d18837eecc59c9ed2ab13916ad4d97,PennController,40,0,trials-gumball,NULL,PennController,48,_Trial_,Start,1731448483282,g_p5,a,NULL
1731448932,62d18837eecc59c9ed2ab13916ad4d97,PennController,40,0,trials-gumball,NULL,Scale,slider-1,Default,0,1731448483283,g_p5,a,slider
1731448932,62d18837eecc59c9ed2ab13916ad4d97,PennController,40,0,trials-gumball,NULL,Image,image,Print,NA,1731448483283,g_p5,a,NULL
1731448932,62d18837eecc59c9ed2ab13916ad4d97,PennController,40,0,trials-gumball,NULL,Scale,slider-3,Default,0,1731448483284,g_p5,a,slider
1731448932,62d18837eecc59c9ed2ab13916ad4d97,PennController,40,0,trials-gumball,NULL,Scale,slider-2,Choice,100,1731448486045,g_p5,a,383
1731448932,62d18837eecc59c9ed2ab13916ad4d97,PennController,40,0,trials-gumball,NULL,PennController,48,_Trial_,End,1731448488980,g_p5,a,NULL
1731448932,62d18837eecc59c9ed2ab13916ad4d97,PennController,41,0,trials-gumball,NULL,PennController,49,_Trial_,Start,1731448488981,g_o9,a,NULL
1731448932,62d18837eecc59c9ed2ab13916ad4d97,PennController,41,0,trials-gumball,NULL,Scale,slider-3,Default,0,1731448488982,g_o9,a,slider
1731448932,62d18837eecc59c9ed2ab13916ad4d97,PennController,41,0,trials-gumball,NULL,Scale,slider-2,Default,0,1731448488982,g_o9,a,slider
1731448932,62d18837eecc59c9ed2ab13916ad4d97,PennController,41,0,trials-gumball,NULL,Image,image,Print,NA,1731448488982,g_o9,a,NULL
1731448932,62d18837eecc59c9ed2ab13916ad4d97,PennController,41,0,trials-gumball,NULL,Scale,slider-1,Choice,100,1731448492429,g_o9,a,201
1731448932,62d18837eecc59c9ed2ab13916ad4d97,PennController,41,0,trials-gumball,NULL,PennController,49,_Trial_,End,1731448493314,g_o9,a,NULL
1731448932,62d18837eecc59c9ed2ab13916ad4d97,PennController,42,0,trials-gumball,NULL,PennController,50,_Trial_,Start,1731448493315,g_p6,a,NULL
1731448932,62d18837eecc59c9ed2ab13916ad4d97,PennController,42,0,trials-gumball,NULL,Image,image,Print,NA,1731448493316,g_p6,a,NULL
1731448932,62d18837eecc59c9ed2ab13916ad4d97,PennController,42,0,trials-gumball,NULL,Scale,slider-3,Default,0,1731448493317,g_p6,a,slider
1731448932,62d18837eecc59c9ed2ab13916ad4d97,PennController,42,0,trials-gumball,NULL,Scale,slider-1,Choice,100,1731448496095,g_p6,a,201
1731448932,62d18837eecc59c9ed2ab13916ad4d97,PennController,42,0,trials-gumball,NULL,Scale,slider-2,Choice,18,1731448498528,g_p6,a,267
1731448932,62d18837eecc59c9ed2ab13916ad4d97,PennController,42,0,trials-gumball,NULL,PennController,50,_Trial_,End,1731448502647,g_p6,a,NULL
1731448932,62d18837eecc59c9ed2ab13916ad4d97,PennController,43,0,trials-gumball,NULL,PennController,51,_Trial_,Start,1731448502648,g_o3,a,NULL
1731448932,62d18837eecc59c9ed2ab13916ad4d97,PennController,43,0,trials-gumball,NULL,Scale,slider-1,Default,0,1731448502649,g_o3,a,slider
1731448932,62d18837eecc59c9ed2ab13916ad4d97,PennController,43,0,trials-gumball,NULL,Image,image,Print,NA,1731448502649,g_o3,a,NULL
1731448932,62d18837eecc59c9ed2ab13916ad4d97,PennController,43,0,trials-gumball,NULL,Scale,slider-3,Choice,24,1731448510314,g_o3,a,703
1731448932,62d18837eecc59c9ed2ab13916ad4d97,PennController,43,0,trials-gumball,NULL,Scale,slider-2,Choice,69,1731448511346,g_o3,a,368
1731448932,62d18837eecc59c9ed2ab13916ad4d97,PennController,43,0,trials-gumball,NULL,PennController,51,_Trial_,End,1731448513630,g_o3,a,NULL
1731448932,62d18837eecc59c9ed2ab13916ad4d97,PennController,44,0,trials-gumball,NULL,PennController,52,_Trial_,Start,1731448513631,g_o8,a,NULL
1731448932,62d18837eecc59c9ed2ab13916ad4d97,PennController,44,0,trials-gumball,NULL,Image,image,Print,NA,1731448513632,g_o8,a,NULL
1731448932,62d18837eecc59c9ed2ab13916ad4d97,PennController,44,0,trials-gumball,NULL,Scale,slider-3,Default,0,1731448513633,g_o8,a,slider
1731448932,62d18837eecc59c9ed2ab13916ad4d97,PennController,44,0,trials-gumball,NULL,Scale,slider-2,Default,0,1731448513633,g_o8,a,slider
1731448932,62d18837eecc59c9ed2ab13916ad4d97,PennController,44,0,trials-gumball,NULL,Scale,slider-1,Choice,100,1731448515728,g_o8,a,184
1731448932,62d18837eecc59c9ed2ab13916ad4d97,PennController,44,0,trials-gumball,NULL,PennController,52,_Trial_,End,1731448517663,g_o8,a,NULL
1731448932,62d18837eecc59c9ed2ab13916ad4d97,PennController,45,0,trials-gumball,NULL,PennController,53,_Trial_,Start,1731448517664,g_o8,a,NULL
1731448932,62d18837eecc59c9ed2ab13916ad4d97,PennController,45,0,trials-gumball,NULL,Selector,selection,Selection,correct,1731448518895,g_o8,a,incorrect;correct
1731448932,62d18837eecc59c9ed2ab13916ad4d97,PennController,45,0,trials-gumball,NULL,PennController,53,_Trial_,End,1731448519763,g_o8,a,NULL
1731448932,62d18837eecc59c9ed2ab13916ad4d97,PennController,46,0,trials-gumball,NULL,PennController,54,_Trial_,Start,1731448519764,g_o7,a,NULL
1731448932,62d18837eecc59c9ed2ab13916ad4d97,PennController,46,0,trials-gumball,NULL,Image,image,Print,NA,1731448519765,g_o7,a,NULL
1731448932,62d18837eecc59c9ed2ab13916ad4d97,PennController,46,0,trials-gumball,NULL,Scale,slider-3,Default,0,1731448519766,g_o7,a,slider
1731448932,62d18837eecc59c9ed2ab13916ad4d97,PennController,46,0,trials-gumball,NULL,Scale,slider-2,Default,0,1731448519766,g_o7,a,slider
1731448932,62d18837eecc59c9ed2ab13916ad4d97,PennController,46,0,trials-gumball,NULL,Scale,slider-1,Choice,100,1731448525078,g_o7,a,384
1731448932,62d18837eecc59c9ed2ab13916ad4d97,PennController,46,0,trials-gumball,NULL,PennController,54,_Trial_,End,1731448527363,g_o7,a,NULL
1731448932,62d18837eecc59c9ed2ab13916ad4d97,PennController,47,0,trials-gumball,NULL,PennController,55,_Trial_,Start,1731448527364,g_o4,a,NULL
1731448932,62d18837eecc59c9ed2ab13916ad4d97,PennController,47,0,trials-gumball,NULL,Scale,slider-3,Default,0,1731448527365,g_o4,a,slider
1731448932,62d18837eecc59c9ed2ab13916ad4d97,PennController,47,0,trials-gumball,NULL,Scale,slider-1,Default,0,1731448527365,g_o4,a,slider
1731448932,62d18837eecc59c9ed2ab13916ad4d97,PennController,47,0,trials-gumball,NULL,Image,image,Print,NA,1731448527365,g_o4,a,NULL
1731448932,62d18837eecc59c9ed2ab13916ad4d97,PennController,47,0,trials-gumball,NULL,Scale,slider-2,Choice,100,1731448530711,g_o4,a,534
1731448932,62d18837eecc59c9ed2ab13916ad4d97,PennController,47,0,trials-gumball,NULL,PennController,55,_Trial_,End,1731448531846,g_o4,a,NULL
1731448932,62d18837eecc59c9ed2ab13916ad4d97,PennController,48,0,trials-gumball,NULL,PennController,56,_Trial_,Start,1731448531847,g_o4,a,NULL
1731448932,62d18837eecc59c9ed2ab13916ad4d97,PennController,48,0,trials-gumball,NULL,Selector,selection,Selection,correct,1731448533211,g_o4,a,incorrect;correct
1731448932,62d18837eecc59c9ed2ab13916ad4d97,PennController,48,0,trials-gumball,NULL,PennController,56,_Trial_,End,1731448534147,g_o4,a,NULL
1731448932,62d18837eecc59c9ed2ab13916ad4d97,PennController,49,0,trials-gumball,NULL,PennController,57,_Trial_,Start,1731448534148,g_p3,a,NULL
1731448932,62d18837eecc59c9ed2ab13916ad4d97,PennController,49,0,trials-gumball,NULL,Scale,slider-3,Default,0,1731448534149,g_p3,a,slider
1731448932,62d18837eecc59c9ed2ab13916ad4d97,PennController,49,0,trials-gumball,NULL,Scale,slider-1,Default,0,1731448534149,g_p3,a,slider
1731448932,62d18837eecc59c9ed2ab13916ad4d97,PennController,49,0,trials-gumball,NULL,Image,image,Print,NA,1731448534149,g_p3,a,NULL
1731448932,62d18837eecc59c9ed2ab13916ad4d97,PennController,49,0,trials-gumball,NULL,Scale,slider-2,Choice,100,1731448539310,g_p3,a,164
1731448932,62d18837eecc59c9ed2ab13916ad4d97,PennController,49,0,trials-gumball,NULL,PennController,57,_Trial_,End,1731448540797,g_p3,a,NULL
1731448932,62d18837eecc59c9ed2ab13916ad4d97,PennController,50,0,trials-gumball,NULL,PennController,58,_Trial_,Start,1731448540798,g_o1,a,NULL
1731448932,62d18837eecc59c9ed2ab13916ad4d97,PennController,50,0,trials-gumball,NULL,Image,image,Print,NA,1731448540799,g_o1,a,NULL
1731448932,62d18837eecc59c9ed2ab13916ad4d97,PennController,50,0,trials-gumball,NULL,Scale,slider-1,Default,0,1731448540800,g_o1,a,slider
1731448932,62d18837eecc59c9ed2ab13916ad4d97,PennController,50,0,trials-gumball,NULL,Scale,slider-2,Choice,42,1731448545662,g_o1,a,622
1731448932,62d18837eecc59c9ed2ab13916ad4d97,PennController,50,0,trials-gumball,NULL,Scale,slider-3,Choice,100,1731448546645,g_o1,a,218
1731448932,62d18837eecc59c9ed2ab13916ad4d97,PennController,50,0,trials-gumball,NULL,PennController,58,_Trial_,End,1731448547780,g_o1,a,NULL
1731448932,62d18837eecc59c9ed2ab13916ad4d97,PennController,51,0,trials-gumball,NULL,PennController,59,_Trial_,Start,1731448547781,g_o2,a,NULL
1731448932,62d18837eecc59c9ed2ab13916ad4d97,PennController,51,0,trials-gumball,NULL,Scale,slider-1,Default,0,1731448547782,g_o2,a,slider
1731448932,62d18837eecc59c9ed2ab13916ad4d97,PennController,51,0,trials-gumball,NULL,Image,image,Print,NA,1731448547782,g_o2,a,NULL
1731448932,62d18837eecc59c9ed2ab13916ad4d97,PennController,51,0,trials-gumball,NULL,Scale,slider-2,Choice,53,1731448550261,g_o2,a,665
1731448932,62d18837eecc59c9ed2ab13916ad4d97,PennController,51,0,trials-gumball,NULL,Scale,slider-3,Choice,100,1731448551511,g_o2,a,184
1731448932,62d18837eecc59c9ed2ab13916ad4d97,PennController,51,0,trials-gumball,NULL,PennController,59,_Trial_,End,1731448552663,g_o2,a,NULL
1731448932,62d18837eecc59c9ed2ab13916ad4d97,PennController,52,0,trials-gumball,NULL,Image,image,Print,NA,1731448552665,g_p9,a,NULL
1731448932,62d18837eecc59c9ed2ab13916ad4d97,PennController,52,0,trials-gumball,NULL,PennController,60,_Trial_,Start,1731448552665,g_p9,a,NULL
1731448932,62d18837eecc59c9ed2ab13916ad4d97,PennController,52,0,trials-gumball,NULL,Scale,slider-3,Default,0,1731448552666,g_p9,a,slider
1731448932,62d18837eecc59c9ed2ab13916ad4d97,PennController,52,0,trials-gumball,NULL,Scale,slider-2,Default,0,1731448552666,g_p9,a,slider
1731448932,62d18837eecc59c9ed2ab13916ad4d97,PennController,52,0,trials-gumball,NULL,Scale,slider-1,Choice,100,1731448555678,g_p9,a,184
1731448932,62d18837eecc59c9ed2ab13916ad4d97,PennController,52,0,trials-gumball,NULL,PennController,60,_Trial_,End,1731448556696,g_p9,a,NULL
1731448932,62d18837eecc59c9ed2ab13916ad4d97,PennController,53,0,trials-gumball,NULL,PennController,61,_Trial_,Start,1731448556698,g_p9,a,NULL
1731448932,62d18837eecc59c9ed2ab13916ad4d97,PennController,53,0,trials-gumball,NULL,Selector,selection,Selection,correct,1731448557661,g_p9,a,incorrect;correct
1731448932,62d18837eecc59c9ed2ab13916ad4d97,PennController,53,0,trials-gumball,NULL,PennController,61,_Trial_,End,1731448559296,g_p9,a,NULL
1731448932,62d18837eecc59c9ed2ab13916ad4d97,PennController,54,0,trials-gumball,NULL,Image,image,Print,NA,1731448559298,g_p2,a,NULL
1731448932,62d18837eecc59c9ed2ab13916ad4d97,PennController,54,0,trials-gumball,NULL,PennController,62,_Trial_,Start,1731448559298,g_p2,a,NULL
1731448932,62d18837eecc59c9ed2ab13916ad4d97,PennController,54,0,trials-gumball,NULL,Scale,slider-1,Default,0,1731448559299,g_p2,a,slider
1731448932,62d18837eecc59c9ed2ab13916ad4d97,PennController,54,0,trials-gumball,NULL,Scale,slider-2,Choice,19,1731448562778,g_p2,a,546
1731448932,62d18837eecc59c9ed2ab13916ad4d97,PennController,54,0,trials-gumball,NULL,Scale,slider-3,Choice,100,1731448563745,g_p2,a,123
1731448932,62d18837eecc59c9ed2ab13916ad4d97,PennController,54,0,trials-gumball,NULL,PennController,62,_Trial_,End,1731448564846,g_p2,a,NULL
1731448932,62d18837eecc59c9ed2ab13916ad4d97,PennController,55,0,trials-gumball,NULL,PennController,63,_Trial_,Start,1731448564847,g_p8,a,NULL
1731448932,62d18837eecc59c9ed2ab13916ad4d97,PennController,55,0,trials-gumball,NULL,Scale,slider-3,Default,0,1731448564848,g_p8,a,slider
1731448932,62d18837eecc59c9ed2ab13916ad4d97,PennController,55,0,trials-gumball,NULL,Scale,slider-2,Default,0,1731448564848,g_p8,a,slider
1731448932,62d18837eecc59c9ed2ab13916ad4d97,PennController,55,0,trials-gumball,NULL,Image,image,Print,NA,1731448564848,g_p8,a,NULL
1731448932,62d18837eecc59c9ed2ab13916ad4d97,PennController,55,0,trials-gumball,NULL,Scale,slider-1,Choice,100,1731448567794,g_p8,a,917
1731448932,62d18837eecc59c9ed2ab13916ad4d97,PennController,55,0,trials-gumball,NULL,PennController,63,_Trial_,End,1731448568813,g_p8,a,NULL
1731448932,62d18837eecc59c9ed2ab13916ad4d97,PennController,56,0,trials-gumball,NULL,PennController,64,_Trial_,Start,1731448568815,g_p8,a,NULL
1731448932,62d18837eecc59c9ed2ab13916ad4d97,PennController,56,0,trials-gumball,NULL,Selector,selection,Selection,correct,1731448570378,g_p8,a,correct;incorrect
1731448932,62d18837eecc59c9ed2ab13916ad4d97,PennController,56,0,trials-gumball,NULL,PennController,64,_Trial_,End,1731448571129,g_p8,a,NULL
1731448932,62d18837eecc59c9ed2ab13916ad4d97,PennController,57,0,trials-gumball,NULL,PennController,65,_Trial_,Start,1731448571130,g_o5,a,NULL
1731448932,62d18837eecc59c9ed2ab13916ad4d97,PennController,57,0,trials-gumball,NULL,Scale,slider-3,Default,0,1731448571131,g_o5,a,slider
1731448932,62d18837eecc59c9ed2ab13916ad4d97,PennController,57,0,trials-gumball,NULL,Scale,slider-1,Default,0,1731448571131,g_o5,a,slider
1731448932,62d18837eecc59c9ed2ab13916ad4d97,PennController,57,0,trials-gumball,NULL,Image,image,Print,NA,1731448571131,g_o5,a,NULL
1731448932,62d18837eecc59c9ed2ab13916ad4d97,PennController,57,0,trials-gumball,NULL,Scale,slider-2,Choice,100,1731448575844,g_o5,a,218
1731448932,62d18837eecc59c9ed2ab13916ad4d97,PennController,57,0,trials-gumball,NULL,PennController,65,_Trial_,End,1731448576680,g_o5,a,NULL
1731448932,62d18837eecc59c9ed2ab13916ad4d97,PennController,58,0,trials-gumball,NULL,PennController,66,_Trial_,Start,1731448576681,g_o6,a,NULL
1731448932,62d18837eecc59c9ed2ab13916ad4d97,PennController,58,0,trials-gumball,NULL,Image,image,Print,NA,1731448576682,g_o6,a,NULL
1731448932,62d18837eecc59c9ed2ab13916ad4d97,PennController,58,0,trials-gumball,NULL,Scale,slider-3,Default,0,1731448576683,g_o6,a,slider
1731448932,62d18837eecc59c9ed2ab13916ad4d97,PennController,58,0,trials-gumball,NULL,Scale,slider-2,Choice,100,1731448579012,g_o6,a,297
1731448932,62d18837eecc59c9ed2ab13916ad4d97,PennController,58,0,trials-gumball,NULL,Scale,slider-1,Choice,25,1731448581311,g_o6,a,429
1731448932,62d18837eecc59c9ed2ab13916ad4d97,PennController,58,0,trials-gumball,NULL,PennController,66,_Trial_,End,1731448582862,g_o6,a,NULL
1731448932,62d18837eecc59c9ed2ab13916ad4d97,PennController,59,0,trials-gumball,NULL,PennController,67,_Trial_,Start,1731448582863,g_p7,a,NULL
1731448932,62d18837eecc59c9ed2ab13916ad4d97,PennController,59,0,trials-gumball,NULL,Image,image,Print,NA,1731448582864,g_p7,a,NULL
1731448932,62d18837eecc59c9ed2ab13916ad4d97,PennController,59,0,trials-gumball,NULL,Scale,slider-3,Default,0,1731448582865,g_p7,a,slider
1731448932,62d18837eecc59c9ed2ab13916ad4d97,PennController,59,0,trials-gumball,NULL,Scale,slider-1,Choice,100,1731448586244,g_p7,a,285
1731448932,62d18837eecc59c9ed2ab13916ad4d97,PennController,59,0,trials-gumball,NULL,Scale,slider-2,Choice,31,1731448588144,g_p7,a,267
1731448932,62d18837eecc59c9ed2ab13916ad4d97,PennController,59,0,trials-gumball,NULL,PennController,67,_Trial_,End,1731448589745,g_p7,a,NULL
1731448932,62d18837eecc59c9ed2ab13916ad4d97,PennController,60,0,trials-gumball,NULL,PennController,68,_Trial_,Start,1731448589746,g_p7,a,NULL
1731448932,62d18837eecc59c9ed2ab13916ad4d97,PennController,60,0,trials-gumball,NULL,Selector,selection,Selection,correct,1731448591111,g_p7,a,correct;incorrect
1731448932,62d18837eecc59c9ed2ab13916ad4d97,PennController,60,0,trials-gumball,NULL,PennController,68,_Trial_,End,1731448592362,g_p7,a,NULL
1731448932,62d18837eecc59c9ed2ab13916ad4d97,PennController,61,0,trials-gumball,NULL,PennController,69,_Trial_,Start,1731448592363,g_p4,a,NULL
1731448932,62d18837eecc59c9ed2ab13916ad4d97,PennController,61,0,trials-gumball,NULL,Scale,slider-1,Default,0,1731448592364,g_p4,a,slider
1731448932,62d18837eecc59c9ed2ab13916ad4d97,PennController,61,0,trials-gumball,NULL,Image,image,Print,NA,1731448592364,g_p4,a,NULL
1731448932,62d18837eecc59c9ed2ab13916ad4d97,PennController,61,0,trials-gumball,NULL,Scale,slider-3,Default,0,1731448592365,g_p4,a,slider
1731448932,62d18837eecc59c9ed2ab13916ad4d97,PennController,61,0,trials-gumball,NULL,Scale,slider-2,Choice,100,1731448600127,g_p4,a,234
1731448932,62d18837eecc59c9ed2ab13916ad4d97,PennController,61,0,trials-gumball,NULL,PennController,69,_Trial_,End,1731448601162,g_p4,a,NULL
1731448932,62d18837eecc59c9ed2ab13916ad4d97,PennController,62,0,trials-gumball,NULL,PennController,70,_Trial_,Start,1731448601163,g_p1,a,NULL
1731448932,62d18837eecc59c9ed2ab13916ad4d97,PennController,62,0,trials-gumball,NULL,Scale,slider-2,Default,0,1731448601164,g_p1,a,slider
1731448932,62d18837eecc59c9ed2ab13916ad4d97,PennController,62,0,trials-gumball,NULL,Scale,slider-1,Default,0,1731448601164,g_p1,a,slider
1731448932,62d18837eecc59c9ed2ab13916ad4d97,PennController,62,0,trials-gumball,NULL,Image,image,Print,NA,1731448601164,g_p1,a,NULL
1731448932,62d18837eecc59c9ed2ab13916ad4d97,PennController,62,0,trials-gumball,NULL,Scale,slider-3,Choice,99,1731448603294,g_p1,a,184
1731448932,62d18837eecc59c9ed2ab13916ad4d97,PennController,62,0,trials-gumball,NULL,PennController,70,_Trial_,End,1731448605578,g_p1,a,NULL
# 13. Comments.
1731448932,62d18837eecc59c9ed2ab13916ad4d97,PennController,63,0,intermission,NULL,PennController,9,_Trial_,Start,1731448605580,NULL
1731448932,62d18837eecc59c9ed2ab13916ad4d97,PennController,63,0,intermission,NULL,PennController,9,_Trial_,End,1731448607578,NULL
1731448932,62d18837eecc59c9ed2ab13916ad4d97,PennController,64,0,instruction-unk-election,NULL,PennController,10,_Trial_,Start,1731448607579,NULL
1731448932,62d18837eecc59c9ed2ab13916ad4d97,PennController,64,0,instruction-unk-election,NULL,PennController,10,_Trial_,End,1731448636462,NULL
1731448932,62d18837eecc59c9ed2ab13916ad4d97,PennController,65,0,instruction-A-2,NULL,PennController,11,_Trial_,Start,1731448636463,NULL
1731448932,62d18837eecc59c9ed2ab13916ad4d97,PennController,65,0,instruction-A-2,NULL,PennController,11,_Trial_,End,1731448643961,NULL
1731448932,62d18837eecc59c9ed2ab13916ad4d97,PennController,66,0,check-A-2,NULL,Button,go-back,Click,NA,Never,NULL
1731448932,62d18837eecc59c9ed2ab13916ad4d97,PennController,66,0,check-A-2,NULL,PennController,12,_Trial_,Start,1731448643962,NULL
1731448932,62d18837eecc59c9ed2ab13916ad4d97,PennController,66,0,check-A-2,NULL,Button,proceed,Click,Click,1731448646575,NULL
1731448932,62d18837eecc59c9ed2ab13916ad4d97,PennController,66,0,check-A-2,NULL,PennController,12,_Trial_,End,1731448646576,NULL
1731448932,62d18837eecc59c9ed2ab13916ad4d97,PennController,67,0,instruction-slider-2,NULL,PennController,13,_Trial_,Start,1731448646577,NULL
1731448932,62d18837eecc59c9ed2ab13916ad4d97,PennController,67,0,instruction-slider-2,NULL,PennController,13,_Trial_,End,1731448652545,NULL
1731448932,62d18837eecc59c9ed2ab13916ad4d97,PennController,68,0,check-slider-2,NULL,PennController,14,_Trial_,Start,1731448652546,NULL
1731448932,62d18837eecc59c9ed2ab13916ad4d97,PennController,68,0,check-slider-2,NULL,PennController,14,_Trial_,End,1731448654327,NULL
1731448932,62d18837eecc59c9ed2ab13916ad4d97,PennController,68,0,check-slider-2,NULL,Button,proceed,Click,Click,1731448654327,NULL
# 13. id.
# 14. group.
# 15. Comments.
1731448932,62d18837eecc59c9ed2ab13916ad4d97,PennController,69,0,trials-unk-election,NULL,PennController,71,_Trial_,Start,1731448654328,e_y4,a,NULL
1731448932,62d18837eecc59c9ed2ab13916ad4d97,PennController,69,0,trials-unk-election,NULL,Image,image,Print,NA,1731448654329,e_y4,a,NULL
1731448932,62d18837eecc59c9ed2ab13916ad4d97,PennController,69,0,trials-unk-election,NULL,Scale,slider-1,Default,0,1731448654330,e_y4,a,slider
1731448932,62d18837eecc59c9ed2ab13916ad4d97,PennController,69,0,trials-unk-election,NULL,Scale,slider-2,Choice,36,1731448665009,e_y4,a,284
1731448932,62d18837eecc59c9ed2ab13916ad4d97,PennController,69,0,trials-unk-election,NULL,Scale,slider-3,Choice,100,1731448666227,e_y4,a,218
1731448932,62d18837eecc59c9ed2ab13916ad4d97,PennController,69,0,trials-unk-election,NULL,PennController,71,_Trial_,End,1731448669314,e_y4,a,NULL
1731448932,62d18837eecc59c9ed2ab13916ad4d97,PennController,70,0,trials-unk-election,NULL,Image,image,Print,NA,1731448669315,e_x4,a,NULL
1731448932,62d18837eecc59c9ed2ab13916ad4d97,PennController,70,0,trials-unk-election,NULL,PennController,72,_Trial_,Start,1731448669315,e_x4,a,NULL
1731448932,62d18837eecc59c9ed2ab13916ad4d97,PennController,70,0,trials-unk-election,NULL,Scale,slider-2,Choice,29,1731448674127,e_x4,a,468
1731448932,62d18837eecc59c9ed2ab13916ad4d97,PennController,70,0,trials-unk-election,NULL,Scale,slider-1,Choice,0,1731448675760,e_x4,a,318
1731448932,62d18837eecc59c9ed2ab13916ad4d97,PennController,70,0,trials-unk-election,NULL,Scale,slider-3,Choice,59,1731448678710,e_x4,a,1416
1731448932,62d18837eecc59c9ed2ab13916ad4d97,PennController,70,0,trials-unk-election,NULL,PennController,72,_Trial_,End,1731448679662,e_x4,a,NULL
1731448932,62d18837eecc59c9ed2ab13916ad4d97,PennController,71,0,trials-unk-election,NULL,PennController,73,_Trial_,Start,1731448679663,e_x4,a,NULL
1731448932,62d18837eecc59c9ed2ab13916ad4d97,PennController,71,0,trials-unk-election,NULL,Selector,selection,Selection,correct,1731448683943,e_x4,a,incorrect;correct
1731448932,62d18837eecc59c9ed2ab13916ad4d97,PennController,71,0,trials-unk-election,NULL,PennController,73,_Trial_,End,1731448685228,e_x4,a,NULL
1731448932,62d18837eecc59c9ed2ab13916ad4d97,PennController,72,0,trials-unk-election,NULL,PennController,74,_Trial_,Start,1731448685229,e_y2,a,NULL
1731448932,62d18837eecc59c9ed2ab13916ad4d97,PennController,72,0,trials-unk-election,NULL,Scale,slider-2,Default,0,1731448685230,e_y2,a,slider
1731448932,62d18837eecc59c9ed2ab13916ad4d97,PennController,72,0,trials-unk-election,NULL,Scale,slider-1,Default,0,1731448685230,e_y2,a,slider
1731448932,62d18837eecc59c9ed2ab13916ad4d97,PennController,72,0,trials-unk-election,NULL,Image,image,Print,NA,1731448685230,e_y2,a,NULL
1731448932,62d18837eecc59c9ed2ab13916ad4d97,PennController,72,0,trials-unk-election,NULL,Scale,slider-3,Choice,100,1731448689709,e_y2,a,234
1731448932,62d18837eecc59c9ed2ab13916ad4d97,PennController,72,0,trials-unk-election,NULL,PennController,74,_Trial_,End,1731448691461,e_y2,a,NULL
1731448932,62d18837eecc59c9ed2ab13916ad4d97,PennController,73,0,trials-unk-election,NULL,Image,image,Print,NA,1731448691463,e_y9,a,NULL
1731448932,62d18837eecc59c9ed2ab13916ad4d97,PennController,73,0,trials-unk-election,NULL,PennController,75,_Trial_,Start,1731448691463,e_y9,a,NULL
1731448932,62d18837eecc59c9ed2ab13916ad4d97,PennController,73,0,trials-unk-election,NULL,Scale,slider-3,Default,0,1731448691464,e_y9,a,slider
1731448932,62d18837eecc59c9ed2ab13916ad4d97,PennController,73,0,trials-unk-election,NULL,Scale,slider-2,Default,0,1731448691464,e_y9,a,slider
1731448932,62d18837eecc59c9ed2ab13916ad4d97,PennController,73,0,trials-unk-election,NULL,Scale,slider-1,Choice,100,1731448695110,e_y9,a,218
1731448932,62d18837eecc59c9ed2ab13916ad4d97,PennController,73,0,trials-unk-election,NULL,PennController,75,_Trial_,End,1731448696195,e_y9,a,NULL
1731448932,62d18837eecc59c9ed2ab13916ad4d97,PennController,74,0,trials-unk-election,NULL,PennController,76,_Trial_,Start,1731448696196,e_x8,a,NULL
1731448932,62d18837eecc59c9ed2ab13916ad4d97,PennController,74,0,trials-unk-election,NULL,Scale,slider-3,Default,0,1731448696197,e_x8,a,slider
1731448932,62d18837eecc59c9ed2ab13916ad4d97,PennController,74,0,trials-unk-election,NULL,Scale,slider-2,Default,0,1731448696197,e_x8,a,slider
1731448932,62d18837eecc59c9ed2ab13916ad4d97,PennController,74,0,trials-unk-election,NULL,Image,image,Print,NA,1731448696197,e_x8,a,NULL
1731448932,62d18837eecc59c9ed2ab13916ad4d97,PennController,74,0,trials-unk-election,NULL,Scale,slider-1,Choice,100,1731448698828,e_x8,a,186
1731448932,62d18837eecc59c9ed2ab13916ad4d97,PennController,74,0,trials-unk-election,NULL,PennController,76,_Trial_,End,1731448700327,e_x8,a,NULL
1731448932,62d18837eecc59c9ed2ab13916ad4d97,PennController,75,0,trials-unk-election,NULL,Image,image,Print,NA,1731448700329,e_y1,a,NULL
1731448932,62d18837eecc59c9ed2ab13916ad4d97,PennController,75,0,trials-unk-election,NULL,PennController,77,_Trial_,Start,1731448700329,e_y1,a,NULL
1731448932,62d18837eecc59c9ed2ab13916ad4d97,PennController,75,0,trials-unk-election,NULL,Scale,slider-2,Default,0,1731448700330,e_y1,a,slider
1731448932,62d18837eecc59c9ed2ab13916ad4d97,PennController,75,0,trials-unk-election,NULL,Scale,slider-3,Choice,100,1731448705492,e_y1,a,167
1731448932,62d18837eecc59c9ed2ab13916ad4d97,PennController,75,0,trials-unk-election,NULL,Scale,slider-1,Choice,0,1731448706596,e_y1,a,254
1731448932,62d18837eecc59c9ed2ab13916ad4d97,PennController,75,0,trials-unk-election,NULL,PennController,77,_Trial_,End,1731448707695,e_y1,a,NULL
1731448932,62d18837eecc59c9ed2ab13916ad4d97,PennController,76,0,trials-unk-election,NULL,PennController,78,_Trial_,Start,1731448707696,e_y7,a,NULL
1731448932,62d18837eecc59c9ed2ab13916ad4d97,PennController,76,0,trials-unk-election,NULL,Image,image,Print,NA,1731448707697,e_y7,a,NULL
1731448932,62d18837eecc59c9ed2ab13916ad4d97,PennController,76,0,trials-unk-election,NULL,Scale,slider-3,Default,0,1731448707698,e_y7,a,slider
1731448932,62d18837eecc59c9ed2ab13916ad4d97,PennController,76,0,trials-unk-election,NULL,Scale,slider-2,Default,0,1731448707698,e_y7,a,slider
1731448932,62d18837eecc59c9ed2ab13916ad4d97,PennController,76,0,trials-unk-election,NULL,Scale,slider-1,Choice,48,1731448710243,e_y7,a,384
1731448932,62d18837eecc59c9ed2ab13916ad4d97,PennController,76,0,trials-unk-election,NULL,PennController,78,_Trial_,End,1731448714178,e_y7,a,NULL
1731448932,62d18837eecc59c9ed2ab13916ad4d97,PennController,77,0,trials-unk-election,NULL,PennController,79,_Trial_,Start,1731448714179,e_y7,a,NULL
1731448932,62d18837eecc59c9ed2ab13916ad4d97,PennController,77,0,trials-unk-election,NULL,Selector,selection,Selection,correct,1731448715559,e_y7,a,correct;incorrect
1731448932,62d18837eecc59c9ed2ab13916ad4d97,PennController,77,0,trials-unk-election,NULL,PennController,79,_Trial_,End,1731448716628,e_y7,a,NULL
1731448932,62d18837eecc59c9ed2ab13916ad4d97,PennController,78,0,trials-unk-election,NULL,PennController,80,_Trial_,Start,1731448716629,e_x5,a,NULL
1731448932,62d18837eecc59c9ed2ab13916ad4d97,PennController,78,0,trials-unk-election,NULL,Scale,slider-1,Default,0,1731448716630,e_x5,a,slider
1731448932,62d18837eecc59c9ed2ab13916ad4d97,PennController,78,0,trials-unk-election,NULL,Image,image,Print,NA,1731448716630,e_x5,a,NULL
1731448932,62d18837eecc59c9ed2ab13916ad4d97,PennController,78,0,trials-unk-election,NULL,Scale,slider-3,Default,0,1731448716631,e_x5,a,slider
1731448932,62d18837eecc59c9ed2ab13916ad4d97,PennController,78,0,trials-unk-election,NULL,Scale,slider-2,Choice,100,1731448722092,e_x5,a,600
1731448932,62d18837eecc59c9ed2ab13916ad4d97,PennController,78,0,trials-unk-election,NULL,PennController,80,_Trial_,End,1731448723445,e_x5,a,NULL
1731448932,62d18837eecc59c9ed2ab13916ad4d97,PennController,79,0,trials-unk-election,NULL,PennController,81,_Trial_,Start,1731448723446,e_x5,a,NULL
1731448932,62d18837eecc59c9ed2ab13916ad4d97,PennController,79,0,trials-unk-election,NULL,Selector,selection,Selection,correct,1731448724742,e_x5,a,correct;incorrect
1731448932,62d18837eecc59c9ed2ab13916ad4d97,PennController,79,0,trials-unk-election,NULL,PennController,81,_Trial_,End,1731448725511,e_x5,a,NULL
1731448932,62d18837eecc59c9ed2ab13916ad4d97,PennController,80,0,trials-unk-election,NULL,PennController,82,_Trial_,Start,1731448725512,e_x2,a,NULL
1731448932,62d18837eecc59c9ed2ab13916ad4d97,PennController,80,0,trials-unk-election,NULL,Scale,slider-2,Default,0,1731448725513,e_x2,a,slider
1731448932,62d18837eecc59c9ed2ab13916ad4d97,PennController,80,0,trials-unk-election,NULL,Scale,slider-1,Default,0,1731448725513,e_x2,a,slider
1731448932,62d18837eecc59c9ed2ab13916ad4d97,PennController,80,0,trials-unk-election,NULL,Image,image,Print,NA,1731448725513,e_x2,a,NULL
1731448932,62d18837eecc59c9ed2ab13916ad4d97,PennController,80,0,trials-unk-election,NULL,Scale,slider-3,Choice,100,1731448729159,e_x2,a,510
1731448932,62d18837eecc59c9ed2ab13916ad4d97,PennController,80,0,trials-unk-election,NULL,PennController,82,_Trial_,End,1731448729995,e_x2,a,NULL
1731448932,62d18837eecc59c9ed2ab13916ad4d97,PennController,81,0,trials-unk-election,NULL,PennController,83,_Trial_,Start,1731448729998,e_x2,a,NULL
1731448932,62d18837eecc59c9ed2ab13916ad4d97,PennController,81,0,trials-unk-election,NULL,Selector,selection,Selection,correct,1731448730842,e_x2,a,incorrect;correct
1731448932,62d18837eecc59c9ed2ab13916ad4d97,PennController,81,0,trials-unk-election,NULL,PennController,83,_Trial_,End,1731448731393,e_x2,a,NULL
1731448932,62d18837eecc59c9ed2ab13916ad4d97,PennController,82,0,trials-unk-election,NULL,PennController,84,_Trial_,Start,1731448731395,e_y5,a,NULL
1731448932,62d18837eecc59c9ed2ab13916ad4d97,PennController,82,0,trials-unk-election,NULL,Scale,slider-3,Default,0,1731448731396,e_y5,a,slider
1731448932,62d18837eecc59c9ed2ab13916ad4d97,PennController,82,0,trials-unk-election,NULL,Scale,slider-1,Default,0,1731448731396,e_y5,a,slider
1731448932,62d18837eecc59c9ed2ab13916ad4d97,PennController,82,0,trials-unk-election,NULL,Image,image,Print,NA,1731448731396,e_y5,a,NULL
1731448932,62d18837eecc59c9ed2ab13916ad4d97,PennController,82,0,trials-unk-election,NULL,Scale,slider-2,Choice,100,1731448735275,e_y5,a,401
1731448932,62d18837eecc59c9ed2ab13916ad4d97,PennController,82,0,trials-unk-election,NULL,PennController,84,_Trial_,End,1731448736277,e_y5,a,NULL
1731448932,62d18837eecc59c9ed2ab13916ad4d97,PennController,83,0,trials-unk-election,NULL,PennController,85,_Trial_,Start,1731448736278,e_y5,a,NULL
1731448932,62d18837eecc59c9ed2ab13916ad4d97,PennController,83,0,trials-unk-election,NULL,Selector,selection,Selection,correct,1731448737175,e_y5,a,incorrect;correct
1731448932,62d18837eecc59c9ed2ab13916ad4d97,PennController,83,0,trials-unk-election,NULL,PennController,85,_Trial_,End,1731448737743,e_y5,a,NULL
1731448932,62d18837eecc59c9ed2ab13916ad4d97,PennController,84,0,trials-unk-election,NULL,Image,image,Print,NA,1731448737745,e_y6,a,NULL
1731448932,62d18837eecc59c9ed2ab13916ad4d97,PennController,84,0,trials-unk-election,NULL,PennController,86,_Trial_,Start,1731448737745,e_y6,a,NULL
1731448932,62d18837eecc59c9ed2ab13916ad4d97,PennController,84,0,trials-unk-election,NULL,Scale,slider-3,Default,0,1731448737746,e_y6,a,slider
1731448932,62d18837eecc59c9ed2ab13916ad4d97,PennController,84,0,trials-unk-election,NULL,Scale,slider-1,Default,0,1731448737746,e_y6,a,slider
1731448932,62d18837eecc59c9ed2ab13916ad4d97,PennController,84,0,trials-unk-election,NULL,Scale,slider-2,Choice,100,1731448741492,e_y6,a,501
1731448932,62d18837eecc59c9ed2ab13916ad4d97,PennController,84,0,trials-unk-election,NULL,PennController,86,_Trial_,End,1731448742760,e_y6,a,NULL
1731448932,62d18837eecc59c9ed2ab13916ad4d97,PennController,85,0,trials-unk-election,NULL,PennController,87,_Trial_,Start,1731448742761,e_y6,a,NULL
1731448932,62d18837eecc59c9ed2ab13916ad4d97,PennController,85,0,trials-unk-election,NULL,Selector,selection,Selection,correct,1731448743742,e_y6,a,incorrect;correct
1731448932,62d18837eecc59c9ed2ab13916ad4d97,PennController,85,0,trials-unk-election,NULL,PennController,87,_Trial_,End,1731448744443,e_y6,a,NULL
1731448932,62d18837eecc59c9ed2ab13916ad4d97,PennController,86,0,trials-unk-election,NULL,Image,image,Print,NA,1731448744444,e_x9,a,NULL
1731448932,62d18837eecc59c9ed2ab13916ad4d97,PennController,86,0,trials-unk-election,NULL,PennController,88,_Trial_,Start,1731448744444,e_x9,a,NULL
1731448932,62d18837eecc59c9ed2ab13916ad4d97,PennController,86,0,trials-unk-election,NULL,Scale,slider-3,Default,0,1731448744445,e_x9,a,slider
1731448932,62d18837eecc59c9ed2ab13916ad4d97,PennController,86,0,trials-unk-election,NULL,Scale,slider-2,Default,0,1731448744445,e_x9,a,slider
1731448932,62d18837eecc59c9ed2ab13916ad4d97,PennController,86,0,trials-unk-election,NULL,Scale,slider-1,Choice,100,1731448747843,e_x9,a,424
1731448932,62d18837eecc59c9ed2ab13916ad4d97,PennController,86,0,trials-unk-election,NULL,PennController,88,_Trial_,End,1731448748994,e_x9,a,NULL
1731448932,62d18837eecc59c9ed2ab13916ad4d97,PennController,87,0,trials-unk-election,NULL,PennController,89,_Trial_,Start,1731448748995,e_x1,a,NULL
1731448932,62d18837eecc59c9ed2ab13916ad4d97,PennController,87,0,trials-unk-election,NULL,Scale,slider-2,Default,0,1731448748996,e_x1,a,slider
1731448932,62d18837eecc59c9ed2ab13916ad4d97,PennController,87,0,trials-unk-election,NULL,Scale,slider-1,Default,0,1731448748996,e_x1,a,slider
1731448932,62d18837eecc59c9ed2ab13916ad4d97,PennController,87,0,trials-unk-election,NULL,Image,image,Print,NA,1731448748996,e_x1,a,NULL
1731448932,62d18837eecc59c9ed2ab13916ad4d97,PennController,87,0,trials-unk-election,NULL,Scale,slider-3,Choice,100,1731448751243,e_x1,a,285
1731448932,62d18837eecc59c9ed2ab13916ad4d97,PennController,87,0,trials-unk-election,NULL,PennController,89,_Trial_,End,1731448752128,e_x1,a,NULL
1731448932,62d18837eecc59c9ed2ab13916ad4d97,PennController,88,0,trials-unk-election,NULL,PennController,90,_Trial_,Start,1731448752129,e_x1,a,NULL
1731448932,62d18837eecc59c9ed2ab13916ad4d97,PennController,88,0,trials-unk-election,NULL,Selector,selection,Selection,correct,1731448753024,e_x1,a,correct;incorrect
1731448932,62d18837eecc59c9ed2ab13916ad4d97,PennController,88,0,trials-unk-election,NULL,PennController,90,_Trial_,End,1731448753909,e_x1,a,NULL
1731448932,62d18837eecc59c9ed2ab13916ad4d97,PennController,89,0,trials-unk-election,NULL,PennController,91,_Trial_,Start,1731448753910,e_y3,a,NULL
1731448932,62d18837eecc59c9ed2ab13916ad4d97,PennController,89,0,trials-unk-election,NULL,Scale,slider-2,Default,0,1731448753911,e_y3,a,slider
1731448932,62d18837eecc59c9ed2ab13916ad4d97,PennController,89,0,trials-unk-election,NULL,Scale,slider-1,Default,0,1731448753911,e_y3,a,slider
1731448932,62d18837eecc59c9ed2ab13916ad4d97,PennController,89,0,trials-unk-election,NULL,Image,image,Print,NA,1731448753911,e_y3,a,NULL
1731448932,62d18837eecc59c9ed2ab13916ad4d97,PennController,89,0,trials-unk-election,NULL,Scale,slider-3,Choice,100,1731448758058,e_y3,a,300
1731448932,62d18837eecc59c9ed2ab13916ad4d97,PennController,89,0,trials-unk-election,NULL,PennController,91,_Trial_,End,1731448758777,e_y3,a,NULL
1731448932,62d18837eecc59c9ed2ab13916ad4d97,PennController,90,0,trials-unk-election,NULL,PennController,92,_Trial_,Start,1731448758779,e_y3,a,NULL
1731448932,62d18837eecc59c9ed2ab13916ad4d97,PennController,90,0,trials-unk-election,NULL,Selector,selection,Selection,correct,1731448759742,e_y3,a,incorrect;correct
1731448932,62d18837eecc59c9ed2ab13916ad4d97,PennController,90,0,trials-unk-election,NULL,PennController,92,_Trial_,End,1731448760310,e_y3,a,NULL
1731448932,62d18837eecc59c9ed2ab13916ad4d97,PennController,91,0,trials-unk-election,NULL,Image,image,Print,NA,1731448760312,e_x3,a,NULL
1731448932,62d18837eecc59c9ed2ab13916ad4d97,PennController,91,0,trials-unk-election,NULL,PennController,93,_Trial_,Start,1731448760312,e_x3,a,NULL
1731448932,62d18837eecc59c9ed2ab13916ad4d97,PennController,91,0,trials-unk-election,NULL,Scale,slider-1,Default,0,1731448760313,e_x3,a,slider
1731448932,62d18837eecc59c9ed2ab13916ad4d97,PennController,91,0,trials-unk-election,NULL,Scale,slider-2,Default,0,1731448760314,e_x3,a,slider
1731448932,62d18837eecc59c9ed2ab13916ad4d97,PennController,91,0,trials-unk-election,NULL,Scale,slider-3,Choice,100,1731448765392,e_x3,a,184
1731448932,62d18837eecc59c9ed2ab13916ad4d97,PennController,91,0,trials-unk-election,NULL,PennController,93,_Trial_,End,1731448766211,e_x3,a,NULL
1731448932,62d18837eecc59c9ed2ab13916ad4d97,PennController,92,0,trials-unk-election,NULL,Image,image,Print,NA,1731448766213,e_y8,a,NULL
1731448932,62d18837eecc59c9ed2ab13916ad4d97,PennController,92,0,trials-unk-election,NULL,PennController,94,_Trial_,Start,1731448766213,e_y8,a,NULL
1731448932,62d18837eecc59c9ed2ab13916ad4d97,PennController,92,0,trials-unk-election,NULL,Scale,slider-3,Default,0,1731448766214,e_y8,a,slider
1731448932,62d18837eecc59c9ed2ab13916ad4d97,PennController,92,0,trials-unk-election,NULL,Scale,slider-2,Default,0,1731448766214,e_y8,a,slider
1731448932,62d18837eecc59c9ed2ab13916ad4d97,PennController,92,0,trials-unk-election,NULL,Scale,slider-1,Choice,100,1731448768278,e_y8,a,187
1731448932,62d18837eecc59c9ed2ab13916ad4d97,PennController,92,0,trials-unk-election,NULL,PennController,94,_Trial_,End,1731448768977,e_y8,a,NULL
1731448932,62d18837eecc59c9ed2ab13916ad4d97,PennController,93,0,trials-unk-election,NULL,PennController,95,_Trial_,Start,1731448768979,e_y8,a,NULL
1731448932,62d18837eecc59c9ed2ab13916ad4d97,PennController,93,0,trials-unk-election,NULL,Selector,selection,Selection,correct,1731448769975,e_y8,a,correct;incorrect
1731448932,62d18837eecc59c9ed2ab13916ad4d97,PennController,93,0,trials-unk-election,NULL,PennController,95,_Trial_,End,1731448770760,e_y8,a,NULL
1731448932,62d18837eecc59c9ed2ab13916ad4d97,PennController,94,0,trials-unk-election,NULL,PennController,96,_Trial_,Start,1731448770761,e_x7,a,NULL
1731448932,62d18837eecc59c9ed2ab13916ad4d97,PennController,94,0,trials-unk-election,NULL,Scale,slider-3,Default,0,1731448770762,e_x7,a,slider
1731448932,62d18837eecc59c9ed2ab13916ad4d97,PennController,94,0,trials-unk-election,NULL,Scale,slider-2,Default,0,1731448770762,e_x7,a,slider
1731448932,62d18837eecc59c9ed2ab13916ad4d97,PennController,94,0,trials-unk-election,NULL,Image,image,Print,NA,1731448770762,e_x7,a,NULL
1731448932,62d18837eecc59c9ed2ab13916ad4d97,PennController,94,0,trials-unk-election,NULL,Scale,slider-1,Choice,100,1731448774892,e_x7,a,357
1731448932,62d18837eecc59c9ed2ab13916ad4d97,PennController,94,0,trials-unk-election,NULL,PennController,96,_Trial_,End,1731448776077,e_x7,a,NULL
1731448932,62d18837eecc59c9ed2ab13916ad4d97,PennController,95,0,trials-unk-election,NULL,PennController,97,_Trial_,Start,1731448776079,e_x6,a,NULL
1731448932,62d18837eecc59c9ed2ab13916ad4d97,PennController,95,0,trials-unk-election,NULL,Scale,slider-3,Default,0,1731448776080,e_x6,a,slider
1731448932,62d18837eecc59c9ed2ab13916ad4d97,PennController,95,0,trials-unk-election,NULL,Scale,slider-2,Default,0,1731448776080,e_x6,a,slider
1731448932,62d18837eecc59c9ed2ab13916ad4d97,PennController,95,0,trials-unk-election,NULL,Image,image,Print,NA,1731448776080,e_x6,a,NULL
1731448932,62d18837eecc59c9ed2ab13916ad4d97,PennController,95,0,trials-unk-election,NULL,Scale,slider-1,Choice,100,1731448777461,e_x6,a,237
1731448932,62d18837eecc59c9ed2ab13916ad4d97,PennController,95,0,trials-unk-election,NULL,PennController,97,_Trial_,End,1731448779077,e_x6,a,NULL
1731448932,62d18837eecc59c9ed2ab13916ad4d97,PennController,96,0,trials-unk-election,NULL,PennController,98,_Trial_,Start,1731448779078,e_x4,a,NULL
1731448932,62d18837eecc59c9ed2ab13916ad4d97,PennController,96,0,trials-unk-election,NULL,Scale,slider-3,Default,0,1731448779079,e_x4,a,slider
1731448932,62d18837eecc59c9ed2ab13916ad4d97,PennController,96,0,trials-unk-election,NULL,Scale,slider-1,Default,0,1731448779079,e_x4,a,slider
1731448932,62d18837eecc59c9ed2ab13916ad4d97,PennController,96,0,trials-unk-election,NULL,Image,image,Print,NA,1731448779079,e_x4,a,NULL
1731448932,62d18837eecc59c9ed2ab13916ad4d97,PennController,96,0,trials-unk-election,NULL,Scale,slider-2,Choice,100,1731448780625,e_x4,a,200
1731448932,62d18837eecc59c9ed2ab13916ad4d97,PennController,96,0,trials-unk-election,NULL,PennController,98,_Trial_,End,1731448781876,e_x4,a,NULL
1731448932,62d18837eecc59c9ed2ab13916ad4d97,PennController,97,0,trials-unk-election,NULL,PennController,99,_Trial_,Start,1731448781877,e_x3,a,NULL
1731448932,62d18837eecc59c9ed2ab13916ad4d97,PennController,97,0,trials-unk-election,NULL,Scale,slider-1,Default,0,1731448781878,e_x3,a,slider
1731448932,62d18837eecc59c9ed2ab13916ad4d97,PennController,97,0,trials-unk-election,NULL,Image,image,Print,NA,1731448781878,e_x3,a,NULL
1731448932,62d18837eecc59c9ed2ab13916ad4d97,PennController,97,0,trials-unk-election,NULL,Scale,slider-2,Choice,58,1731448784344,e_x3,a,486
1731448932,62d18837eecc59c9ed2ab13916ad4d97,PennController,97,0,trials-unk-election,NULL,Scale,slider-3,Choice,82,1731448785108,e_x3,a,116
1731448932,62d18837eecc59c9ed2ab13916ad4d97,PennController,97,0,trials-unk-election,NULL,PennController,99,_Trial_,End,1731448786060,e_x3,a,NULL
1731448932,62d18837eecc59c9ed2ab13916ad4d97,PennController,98,0,trials-unk-election,NULL,PennController,100,_Trial_,Start,1731448786062,e_x6,a,NULL
1731448932,62d18837eecc59c9ed2ab13916ad4d97,PennController,98,0,trials-unk-election,NULL,Scale,slider-3,Default,0,1731448786063,e_x6,a,slider
1731448932,62d18837eecc59c9ed2ab13916ad4d97,PennController,98,0,trials-unk-election,NULL,Scale,slider-1,Default,0,1731448786063,e_x6,a,slider
1731448932,62d18837eecc59c9ed2ab13916ad4d97,PennController,98,0,trials-unk-election,NULL,Image,image,Print,NA,1731448786063,e_x6,a,NULL
1731448932,62d18837eecc59c9ed2ab13916ad4d97,PennController,98,0,trials-unk-election,NULL,Scale,slider-2,Choice,100,1731448788194,e_x6,a,253
1731448932,62d18837eecc59c9ed2ab13916ad4d97,PennController,98,0,trials-unk-election,NULL,PennController,100,_Trial_,End,1731448789194,e_x6,a,NULL
1731448932,62d18837eecc59c9ed2ab13916ad4d97,PennController,99,0,trials-unk-election,NULL,PennController,101,_Trial_,Start,1731448789195,e_x6,a,NULL
1731448932,62d18837eecc59c9ed2ab13916ad4d97,PennController,99,0,trials-unk-election,NULL,Selector,selection,Selection,correct,1731448790208,e_x6,a,incorrect;correct
1731448932,62d18837eecc59c9ed2ab13916ad4d97,PennController,99,0,trials-unk-election,NULL,PennController,101,_Trial_,End,1731448790910,e_x6,a,NULL
1731448932,62d18837eecc59c9ed2ab13916ad4d97,PennController,100,0,trials-unk-election,NULL,PennController,102,_Trial_,Start,1731448790911,e_y9,a,NULL
1731448932,62d18837eecc59c9ed2ab13916ad4d97,PennController,100,0,trials-unk-election,NULL,Scale,slider-2,Default,0,1731448790912,e_y9,a,slider
1731448932,62d18837eecc59c9ed2ab13916ad4d97,PennController,100,0,trials-unk-election,NULL,Image,image,Print,NA,1731448790912,e_y9,a,NULL
1731448932,62d18837eecc59c9ed2ab13916ad4d97,PennController,100,0,trials-unk-election,NULL,Scale,slider-3,Default,0,1731448790913,e_y9,a,slider
1731448932,62d18837eecc59c9ed2ab13916ad4d97,PennController,100,0,trials-unk-election,NULL,Scale,slider-1,Choice,100,1731448793075,e_y9,a,218
1731448932,62d18837eecc59c9ed2ab13916ad4d97,PennController,100,0,trials-unk-election,NULL,PennController,102,_Trial_,End,1731448793776,e_y9,a,NULL
1731448932,62d18837eecc59c9ed2ab13916ad4d97,PennController,101,0,trials-unk-election,NULL,Image,image,Print,NA,1731448793778,e_x7,a,NULL
1731448932,62d18837eecc59c9ed2ab13916ad4d97,PennController,101,0,trials-unk-election,NULL,PennController,103,_Trial_,Start,1731448793778,e_x7,a,NULL
1731448932,62d18837eecc59c9ed2ab13916ad4d97,PennController,101,0,trials-unk-election,NULL,Scale,slider-3,Default,0,1731448793779,e_x7,a,slider
1731448932,62d18837eecc59c9ed2ab13916ad4d97,PennController,101,0,trials-unk-election,NULL,Scale,slider-2,Default,0,1731448793779,e_x7,a,slider
1731448932,62d18837eecc59c9ed2ab13916ad4d97,PennController,101,0,trials-unk-election,NULL,Scale,slider-1,Choice,100,1731448796625,e_x7,a,217
1731448932,62d18837eecc59c9ed2ab13916ad4d97,PennController,101,0,trials-unk-election,NULL,PennController,103,_Trial_,End,1731448797477,e_x7,a,NULL
1731448932,62d18837eecc59c9ed2ab13916ad4d97,PennController,102,0,trials-unk-election,NULL,PennController,104,_Trial_,Start,1731448797478,e_y1,a,NULL
1731448932,62d18837eecc59c9ed2ab13916ad4d97,PennController,102,0,trials-unk-election,NULL,Image,image,Print,NA,1731448797479,e_y1,a,NULL
1731448932,62d18837eecc59c9ed2ab13916ad4d97,PennController,102,0,trials-unk-election,NULL,Scale,slider-2,Default,0,1731448797480,e_y1,a,slider
1731448932,62d18837eecc59c9ed2ab13916ad4d97,PennController,102,0,trials-unk-election,NULL,Scale,slider-1,Default,0,1731448797480,e_y1,a,slider
1731448932,62d18837eecc59c9ed2ab13916ad4d97,PennController,102,0,trials-unk-election,NULL,Scale,slider-3,Choice,100,1731448800041,e_y1,a,200
1731448932,62d18837eecc59c9ed2ab13916ad4d97,PennController,102,0,trials-unk-election,NULL,PennController,104,_Trial_,End,1731448801044,e_y1,a,NULL
1731448932,62d18837eecc59c9ed2ab13916ad4d97,PennController,103,0,trials-unk-election,NULL,PennController,105,_Trial_,Start,1731448801045,e_y7,a,NULL
1731448932,62d18837eecc59c9ed2ab13916ad4d97,PennController,103,0,trials-unk-election,NULL,Scale,slider-2,Default,0,1731448801046,e_y7,a,slider
1731448932,62d18837eecc59c9ed2ab13916ad4d97,PennController,103,0,trials-unk-election,NULL,Image,image,Print,NA,1731448801046,e_y7,a,NULL
1731448932,62d18837eecc59c9ed2ab13916ad4d97,PennController,103,0,trials-unk-election,NULL,Scale,slider-3,Default,0,1731448801047,e_y7,a,slider
1731448932,62d18837eecc59c9ed2ab13916ad4d97,PennController,103,0,trials-unk-election,NULL,Scale,slider-1,Choice,100,1731448802675,e_y7,a,168
1731448932,62d18837eecc59c9ed2ab13916ad4d97,PennController,103,0,trials-unk-election,NULL,PennController,105,_Trial_,End,1731448803560,e_y7,a,NULL
1731448932,62d18837eecc59c9ed2ab13916ad4d97,PennController,104,0,trials-unk-election,NULL,Image,image,Print,NA,1731448803562,e_x8,a,NULL
1731448932,62d18837eecc59c9ed2ab13916ad4d97,PennController,104,0,trials-unk-election,NULL,PennController,106,_Trial_,Start,1731448803562,e_x8,a,NULL
1731448932,62d18837eecc59c9ed2ab13916ad4d97,PennController,104,0,trials-unk-election,NULL,Scale,slider-3,Default,0,1731448803563,e_x8,a,slider
1731448932,62d18837eecc59c9ed2ab13916ad4d97,PennController,104,0,trials-unk-election,NULL,Scale,slider-2,Default,0,1731448803563,e_x8,a,slider
1731448932,62d18837eecc59c9ed2ab13916ad4d97,PennController,104,0,trials-unk-election,NULL,Scale,slider-1,Choice,100,1731448805508,e_x8,a,168
1731448932,62d18837eecc59c9ed2ab13916ad4d97,PennController,104,0,trials-unk-election,NULL,PennController,106,_Trial_,End,1731448806393,e_x8,a,NULL
1731448932,62d18837eecc59c9ed2ab13916ad4d97,PennController,105,0,trials-unk-election,NULL,Image,image,Print,NA,1731448806394,e_y2,a,NULL
1731448932,62d18837eecc59c9ed2ab13916ad4d97,PennController,105,0,trials-unk-election,NULL,PennController,107,_Trial_,Start,1731448806394,e_y2,a,NULL
1731448932,62d18837eecc59c9ed2ab13916ad4d97,PennController,105,0,trials-unk-election,NULL,Scale,slider-2,Default,0,1731448806395,e_y2,a,slider
1731448932,62d18837eecc59c9ed2ab13916ad4d97,PennController,105,0,trials-unk-election,NULL,Scale,slider-1,Default,0,1731448806395,e_y2,a,slider
1731448932,62d18837eecc59c9ed2ab13916ad4d97,PennController,105,0,trials-unk-election,NULL,Scale,slider-3,Choice,100,1731448809258,e_y2,a,268
1731448932,62d18837eecc59c9ed2ab13916ad4d97,PennController,105,0,trials-unk-election,NULL,PennController,107,_Trial_,End,1731448810160,e_y2,a,NULL
1731448932,62d18837eecc59c9ed2ab13916ad4d97,PennController,106,0,trials-unk-election,NULL,PennController,108,_Trial_,Start,1731448810161,e_x5,a,NULL
1731448932,62d18837eecc59c9ed2ab13916ad4d97,PennController,106,0,trials-unk-election,NULL,Scale,slider-3,Default,0,1731448810162,e_x5,a,slider
1731448932,62d18837eecc59c9ed2ab13916ad4d97,PennController,106,0,trials-unk-election,NULL,Scale,slider-1,Default,0,1731448810162,e_x5,a,slider
1731448932,62d18837eecc59c9ed2ab13916ad4d97,PennController,106,0,trials-unk-election,NULL,Image,image,Print,NA,1731448810162,e_x5,a,NULL
1731448932,62d18837eecc59c9ed2ab13916ad4d97,PennController,106,0,trials-unk-election,NULL,Scale,slider-2,Choice,100,1731448812142,e_x5,a,327
1731448932,62d18837eecc59c9ed2ab13916ad4d97,PennController,106,0,trials-unk-election,NULL,PennController,108,_Trial_,End,1731448812960,e_x5,a,NULL
1731448932,62d18837eecc59c9ed2ab13916ad4d97,PennController,107,0,trials-unk-election,NULL,PennController,109,_Trial_,Start,1731448812961,e_x2,a,NULL
1731448932,62d18837eecc59c9ed2ab13916ad4d97,PennController,107,0,trials-unk-election,NULL,Scale,slider-1,Default,0,1731448812962,e_x2,a,slider
1731448932,62d18837eecc59c9ed2ab13916ad4d97,PennController,107,0,trials-unk-election,NULL,Image,image,Print,NA,1731448812962,e_x2,a,NULL
1731448932,62d18837eecc59c9ed2ab13916ad4d97,PennController,107,0,trials-unk-election,NULL,Scale,slider-2,Default,0,1731448812963,e_x2,a,slider
1731448932,62d18837eecc59c9ed2ab13916ad4d97,PennController,107,0,trials-unk-election,NULL,Scale,slider-3,Choice,100,1731448815158,e_x2,a,134
1731448932,62d18837eecc59c9ed2ab13916ad4d97,PennController,107,0,trials-unk-election,NULL,PennController,109,_Trial_,End,1731448816143,e_x2,a,NULL
1731448932,62d18837eecc59c9ed2ab13916ad4d97,PennController,108,0,trials-unk-election,NULL,PennController,110,_Trial_,Start,1731448816144,e_x2,a,NULL
1731448932,62d18837eecc59c9ed2ab13916ad4d97,PennController,108,0,trials-unk-election,NULL,Selector,selection,Selection,correct,1731448817108,e_x2,a,incorrect;correct
1731448932,62d18837eecc59c9ed2ab13916ad4d97,PennController,108,0,trials-unk-election,NULL,PennController,110,_Trial_,End,1731448817609,e_x2,a,NULL
1731448932,62d18837eecc59c9ed2ab13916ad4d97,PennController,109,0,trials-unk-election,NULL,PennController,111,_Trial_,Start,1731448817610,e_y5,a,NULL
1731448932,62d18837eecc59c9ed2ab13916ad4d97,PennController,109,0,trials-unk-election,NULL,Scale,slider-3,Default,0,1731448817611,e_y5,a,slider
1731448932,62d18837eecc59c9ed2ab13916ad4d97,PennController,109,0,trials-unk-election,NULL,Scale,slider-1,Default,0,1731448817611,e_y5,a,slider
1731448932,62d18837eecc59c9ed2ab13916ad4d97,PennController,109,0,trials-unk-election,NULL,Image,image,Print,NA,1731448817611,e_y5,a,NULL
1731448932,62d18837eecc59c9ed2ab13916ad4d97,PennController,109,0,trials-unk-election,NULL,Scale,slider-2,Choice,100,1731448821475,e_y5,a,168
1731448932,62d18837eecc59c9ed2ab13916ad4d97,PennController,109,0,trials-unk-election,NULL,PennController,111,_Trial_,End,1731448822444,e_y5,a,NULL
1731448932,62d18837eecc59c9ed2ab13916ad4d97,PennController,110,0,trials-unk-election,NULL,PennController,112,_Trial_,Start,1731448822445,e_y3,a,NULL
1731448932,62d18837eecc59c9ed2ab13916ad4d97,PennController,110,0,trials-unk-election,NULL,Scale,slider-1,Default,0,1731448822446,e_y3,a,slider
1731448932,62d18837eecc59c9ed2ab13916ad4d97,PennController,110,0,trials-unk-election,NULL,Image,image,Print,NA,1731448822446,e_y3,a,NULL
1731448932,62d18837eecc59c9ed2ab13916ad4d97,PennController,110,0,trials-unk-election,NULL,Scale,slider-3,Choice,100,1731448826959,e_y3,a,302
1731448932,62d18837eecc59c9ed2ab13916ad4d97,PennController,110,0,trials-unk-election,NULL,Scale,slider-2,Choice,33,1731448828041,e_y3,a,99
1731448932,62d18837eecc59c9ed2ab13916ad4d97,PennController,110,0,trials-unk-election,NULL,PennController,112,_Trial_,End,1731448829043,e_y3,a,NULL
1731448932,62d18837eecc59c9ed2ab13916ad4d97,PennController,111,0,trials-unk-election,NULL,PennController,113,_Trial_,Start,1731448829045,e_y6,a,NULL
1731448932,62d18837eecc59c9ed2ab13916ad4d97,PennController,111,0,trials-unk-election,NULL,Scale,slider-3,Default,0,1731448829046,e_y6,a,slider
1731448932,62d18837eecc59c9ed2ab13916ad4d97,PennController,111,0,trials-unk-election,NULL,Scale,slider-1,Default,0,1731448829046,e_y6,a,slider
1731448932,62d18837eecc59c9ed2ab13916ad4d97,PennController,111,0,trials-unk-election,NULL,Image,image,Print,NA,1731448829046,e_y6,a,NULL
1731448932,62d18837eecc59c9ed2ab13916ad4d97,PennController,111,0,trials-unk-election,NULL,Scale,slider-2,Choice,100,1731448830242,e_y6,a,185
1731448932,62d18837eecc59c9ed2ab13916ad4d97,PennController,111,0,trials-unk-election,NULL,PennController,113,_Trial_,End,1731448832510,e_y6,a,NULL
1731448932,62d18837eecc59c9ed2ab13916ad4d97,PennController,112,0,trials-unk-election,NULL,PennController,114,_Trial_,Start,1731448832511,e_x1,a,NULL
1731448932,62d18837eecc59c9ed2ab13916ad4d97,PennController,112,0,trials-unk-election,NULL,Scale,slider-2,Default,0,1731448832512,e_x1,a,slider
1731448932,62d18837eecc59c9ed2ab13916ad4d97,PennController,112,0,trials-unk-election,NULL,Scale,slider-1,Default,0,1731448832512,e_x1,a,slider
1731448932,62d18837eecc59c9ed2ab13916ad4d97,PennController,112,0,trials-unk-election,NULL,Image,image,Print,NA,1731448832512,e_x1,a,NULL
1731448932,62d18837eecc59c9ed2ab13916ad4d97,PennController,112,0,trials-unk-election,NULL,Scale,slider-3,Choice,100,1731448836223,e_x1,a,233
1731448932,62d18837eecc59c9ed2ab13916ad4d97,PennController,112,0,trials-unk-election,NULL,PennController,114,_Trial_,End,1731448837393,e_x1,a,NULL
1731448932,62d18837eecc59c9ed2ab13916ad4d97,PennController,113,0,trials-unk-election,NULL,PennController,115,_Trial_,Start,1731448837394,e_y8,a,NULL
1731448932,62d18837eecc59c9ed2ab13916ad4d97,PennController,113,0,trials-unk-election,NULL,Image,image,Print,NA,1731448837395,e_y8,a,NULL
1731448932,62d18837eecc59c9ed2ab13916ad4d97,PennController,113,0,trials-unk-election,NULL,Scale,slider-2,Default,0,1731448837396,e_y8,a,slider
1731448932,62d18837eecc59c9ed2ab13916ad4d97,PennController,113,0,trials-unk-election,NULL,Scale,slider-1,Choice,100,1731448840424,e_y8,a,245
1731448932,62d18837eecc59c9ed2ab13916ad4d97,PennController,113,0,trials-unk-election,NULL,Scale,slider-3,Choice,0,1731448841558,e_y8,a,383
1731448932,62d18837eecc59c9ed2ab13916ad4d97,PennController,113,0,trials-unk-election,NULL,PennController,115,_Trial_,End,1731448842459,e_y8,a,NULL
1731448932,62d18837eecc59c9ed2ab13916ad4d97,PennController,114,0,trials-unk-election,NULL,PennController,116,_Trial_,Start,1731448842460,e_y8,a,NULL
1731448932,62d18837eecc59c9ed2ab13916ad4d97,PennController,114,0,trials-unk-election,NULL,Selector,selection,Selection,correct,1731448843341,e_y8,a,incorrect;correct
1731448932,62d18837eecc59c9ed2ab13916ad4d97,PennController,114,0,trials-unk-election,NULL,PennController,116,_Trial_,End,1731448844109,e_y8,a,NULL
1731448932,62d18837eecc59c9ed2ab13916ad4d97,PennController,115,0,trials-unk-election,NULL,PennController,117,_Trial_,Start,1731448844110,e_x9,a,NULL
1731448932,62d18837eecc59c9ed2ab13916ad4d97,PennController,115,0,trials-unk-election,NULL,Scale,slider-3,Default,0,1731448844111,e_x9,a,slider
1731448932,62d18837eecc59c9ed2ab13916ad4d97,PennController,115,0,trials-unk-election,NULL,Scale,slider-2,Default,0,1731448844111,e_x9,a,slider
1731448932,62d18837eecc59c9ed2ab13916ad4d97,PennController,115,0,trials-unk-election,NULL,Image,image,Print,NA,1731448844111,e_x9,a,NULL
1731448932,62d18837eecc59c9ed2ab13916ad4d97,PennController,115,0,trials-unk-election,NULL,Scale,slider-1,Choice,100,1731448846391,e_x9,a,167
1731448932,62d18837eecc59c9ed2ab13916ad4d97,PennController,115,0,trials-unk-election,NULL,PennController,117,_Trial_,End,1731448847110,e_x9,a,NULL
1731448932,62d18837eecc59c9ed2ab13916ad4d97,PennController,116,0,trials-unk-election,NULL,PennController,118,_Trial_,Start,1731448847111,e_y4,a,NULL
1731448932,62d18837eecc59c9ed2ab13916ad4d97,PennController,116,0,trials-unk-election,NULL,Scale,slider-1,Default,0,1731448847112,e_y4,a,slider
1731448932,62d18837eecc59c9ed2ab13916ad4d97,PennController,116,0,trials-unk-election,NULL,Image,image,Print,NA,1731448847112,e_y4,a,NULL
1731448932,62d18837eecc59c9ed2ab13916ad4d97,PennController,116,0,trials-unk-election,NULL,Scale,slider-2,Choice,73,1731448849491,e_y4,a,434
1731448932,62d18837eecc59c9ed2ab13916ad4d97,PennController,116,0,trials-unk-election,NULL,Scale,slider-3,Choice,91,1731448850944,e_y4,a,402
1731448932,62d18837eecc59c9ed2ab13916ad4d97,PennController,116,0,trials-unk-election,NULL,PennController,118,_Trial_,End,1731448852393,e_y4,a,NULL
# 13. Comments.
1731448932,62d18837eecc59c9ed2ab13916ad4d97,PennController,117,0,trials-end,NULL,PennController,15,_Trial_,Start,1731448852394,NULL
1731448932,62d18837eecc59c9ed2ab13916ad4d97,PennController,117,0,trials-end,NULL,PennController,15,_Trial_,End,1731448854743,NULL
1731448932,62d18837eecc59c9ed2ab13916ad4d97,PennController,118,0,demographics,NULL,PennController,16,_Trial_,Start,1731448854744,NULL
1731448932,62d18837eecc59c9ed2ab13916ad4d97,PennController,118,0,demographics,NULL,PennController,16,_Trial_,End,1731448930210,NULL
1731448932,62d18837eecc59c9ed2ab13916ad4d97,PennController,118,0,demographics,NULL,Html,demographics_survey,social_eng,90to100,1731448930210,radio button
1731448932,62d18837eecc59c9ed2ab13916ad4d97,PennController,118,0,demographics,NULL,Html,demographics_survey,work_eng,90to100,1731448930210,radio button
1731448932,62d18837eecc59c9ed2ab13916ad4d97,PennController,118,0,demographics,NULL,Html,demographics_survey,home_eng,90to100,1731448930210,radio button
1731448932,62d18837eecc59c9ed2ab13916ad4d97,PennController,118,0,demographics,NULL,Html,demographics_survey,learn_eng,Less than 5,1731448930210,radio button
1731448932,62d18837eecc59c9ed2ab13916ad4d97,PennController,118,0,demographics,NULL,Html,demographics_survey,first_eng,Yes,1731448930210,radio button
1731448932,62d18837eecc59c9ed2ab13916ad4d97,PennController,118,0,demographics,NULL,Html,demographics_survey,native_eng,Yes,1731448930210,radio button
1731448932,62d18837eecc59c9ed2ab13916ad4d97,PennController,118,0,demographics,NULL,Html,demographics_survey,Y,3,1731448930210,radio button
1731448932,62d18837eecc59c9ed2ab13916ad4d97,PennController,118,0,demographics,NULL,Html,demographics_survey,X,3,1731448930210,radio button
1731448932,62d18837eecc59c9ed2ab13916ad4d97,PennController,118,0,demographics,NULL,Html,demographics_survey,in_us,Yes,1731448930210,radio button
1731448932,62d18837eecc59c9ed2ab13916ad4d97,PennController,118,0,demographics,NULL,Html,demographics_survey,gender,Male,1731448930210,radio button
1731448932,62d18837eecc59c9ed2ab13916ad4d97,PennController,118,0,demographics,NULL,Html,demographics_survey,speak,26,1731448930210,text input
1731448932,62d18837eecc59c9ed2ab13916ad4d97,PennController,118,0,demographics,NULL,Html,demographics_survey,first_lang,,1731448930210,text input
1731448932,62d18837eecc59c9ed2ab13916ad4d97,PennController,118,0,demographics,NULL,Html,demographics_survey,us_state,TX,1731448930210,text input
1731448932,62d18837eecc59c9ed2ab13916ad4d97,PennController,118,0,demographics,NULL,Html,demographics_survey,years_us,20,1731448930210,text input
1731448932,62d18837eecc59c9ed2ab13916ad4d97,PennController,118,0,demographics,NULL,Html,demographics_survey,gender,26,1731448930210,text input
#
# Results on Tue, 12 Nov 2024 22:04:07 GMT
# USER AGENT: Mozilla/5.0 (Windows NT 10.0; Win64; x64) AppleWebKit/537.36 (KHTML, like Gecko) Chrome/130.0.0.0 Safari/537.36
# Design number was non-random = 0
#
# Columns below this comment are as follows:
# 1. Results reception time.
# 2. MD5 hash of participant's IP address.
# 3. Controller name.
# 4. Order number of item.
# 5. Inner element number.
# 6. Label.
# 7. Latin Square Group.
# 8. PennElementType.
# 9. PennElementName.
# 10. Parameter.
# 11. Value.
# 12. EventTime.
# 13. Comments.
1731449047,ac8ef7d9070aa6df9a0ed6d9872eac02,PennController,1,0,consent,NULL,PennController,0,_Trial_,Start,1731448061666,NULL
1731449047,ac8ef7d9070aa6df9a0ed6d9872eac02,PennController,1,0,consent,NULL,Html,consent_form,prolific_id,6731fc26fd7f506755d4593d,1731448117755,text input
1731449047,ac8ef7d9070aa6df9a0ed6d9872eac02,PennController,1,0,consent,NULL,Html,consent_form,consent,checked,1731448117756,checkbox
1731449047,ac8ef7d9070aa6df9a0ed6d9872eac02,PennController,1,0,consent,NULL,PennController,0,_Trial_,End,1731448117756,NULL
1731449047,ac8ef7d9070aa6df9a0ed6d9872eac02,PennController,2,0,instruction-start,NULL,PennController,1,_Trial_,Start,1731448117763,NULL
1731449047,ac8ef7d9070aa6df9a0ed6d9872eac02,PennController,2,0,instruction-start,NULL,PennController,1,_Trial_,End,1731448124034,NULL
1731449047,ac8ef7d9070aa6df9a0ed6d9872eac02,PennController,3,0,instruction-gumball,NULL,PennController,2,_Trial_,Start,1731448124038,NULL
1731449047,ac8ef7d9070aa6df9a0ed6d9872eac02,PennController,3,0,instruction-gumball,NULL,PennController,2,_Trial_,End,1731448149381,NULL
1731449047,ac8ef7d9070aa6df9a0ed6d9872eac02,PennController,4,0,instruction-A-1,NULL,PennController,3,_Trial_,Start,1731448149384,NULL
1731449047,ac8ef7d9070aa6df9a0ed6d9872eac02,PennController,4,0,instruction-A-1,NULL,PennController,3,_Trial_,End,1731448160630,NULL
1731449047,ac8ef7d9070aa6df9a0ed6d9872eac02,PennController,5,0,check-A-1,NULL,PennController,4,_Trial_,Start,1731448160632,NULL
1731449047,ac8ef7d9070aa6df9a0ed6d9872eac02,PennController,5,0,check-A-1,NULL,Button,go-back,Click,NA,Never,NULL
1731449047,ac8ef7d9070aa6df9a0ed6d9872eac02,PennController,5,0,check-A-1,NULL,Button,proceed,Click,Click,1731448171227,NULL
1731449047,ac8ef7d9070aa6df9a0ed6d9872eac02,PennController,5,0,check-A-1,NULL,PennController,4,_Trial_,End,1731448171228,NULL
1731449047,ac8ef7d9070aa6df9a0ed6d9872eac02,PennController,6,0,instruction-slider-1,NULL,PennController,5,_Trial_,Start,1731448171231,NULL
1731449047,ac8ef7d9070aa6df9a0ed6d9872eac02,PennController,6,0,instruction-slider-1,NULL,PennController,5,_Trial_,End,1731448200606,NULL
1731449047,ac8ef7d9070aa6df9a0ed6d9872eac02,PennController,7,0,check-slider-1,NULL,PennController,6,_Trial_,Start,1731448200607,NULL
1731449047,ac8ef7d9070aa6df9a0ed6d9872eac02,PennController,7,0,check-slider-1,NULL,Button,proceed,Click,Click,1731448218272,NULL
1731449047,ac8ef7d9070aa6df9a0ed6d9872eac02,PennController,7,0,check-slider-1,NULL,PennController,6,_Trial_,End,1731448218274,NULL
1731449047,ac8ef7d9070aa6df9a0ed6d9872eac02,PennController,8,0,practice-start,NULL,PennController,7,_Trial_,Start,1731448218277,NULL
1731449047,ac8ef7d9070aa6df9a0ed6d9872eac02,PennController,8,0,practice-start,NULL,PennController,7,_Trial_,End,1731448222588,NULL
# 13. id.
# 14. group.
# 15. Comments.
1731449047,ac8ef7d9070aa6df9a0ed6d9872eac02,PennController,9,0,practice,NULL,PennController,18,_Trial_,Start,1731448222592,g_p9,a,NULL
1731449047,ac8ef7d9070aa6df9a0ed6d9872eac02,PennController,9,0,practice,NULL,Image,image,Print,NA,1731448222594,g_p9,a,NULL
1731449047,ac8ef7d9070aa6df9a0ed6d9872eac02,PennController,9,0,practice,NULL,Scale,slider-1,Default,0,1731448222598,g_p9,a,slider
1731449047,ac8ef7d9070aa6df9a0ed6d9872eac02,PennController,9,0,practice,NULL,Scale,slider-2,Choice,100,1731448234722,g_p9,a,67
1731449047,ac8ef7d9070aa6df9a0ed6d9872eac02,PennController,9,0,practice,NULL,Scale,slider-3,Default,0,1731448222599,g_p9,a,slider
1731449047,ac8ef7d9070aa6df9a0ed6d9872eac02,PennController,9,0,practice,NULL,PennController,18,_Trial_,End,1731448236442,g_p9,a,NULL
1731449047,ac8ef7d9070aa6df9a0ed6d9872eac02,PennController,10,0,practice,NULL,PennController,19,_Trial_,Start,1731448236443,g_p1,a,NULL
1731449047,ac8ef7d9070aa6df9a0ed6d9872eac02,PennController,10,0,practice,NULL,Image,image,Print,NA,1731448236444,g_p1,a,NULL
1731449047,ac8ef7d9070aa6df9a0ed6d9872eac02,PennController,10,0,practice,NULL,Scale,slider-1,Choice,100,1731448248518,g_p1,a,26
1731449047,ac8ef7d9070aa6df9a0ed6d9872eac02,PennController,10,0,practice,NULL,Scale,slider-2,Choice,46,1731448252156,g_p1,a,25
1731449047,ac8ef7d9070aa6df9a0ed6d9872eac02,PennController,10,0,practice,NULL,Scale,slider-3,Default,0,1731448236445,g_p1,a,slider
1731449047,ac8ef7d9070aa6df9a0ed6d9872eac02,PennController,10,0,practice,NULL,PennController,19,_Trial_,End,1731448252912,g_p1,a,NULL
1731449047,ac8ef7d9070aa6df9a0ed6d9872eac02,PennController,11,0,practice,NULL,PennController,20,_Trial_,Start,1731448252918,g_o9,a,NULL
1731449047,ac8ef7d9070aa6df9a0ed6d9872eac02,PennController,11,0,practice,NULL,Image,image,Print,NA,1731448252919,g_o9,a,NULL
1731449047,ac8ef7d9070aa6df9a0ed6d9872eac02,PennController,11,0,practice,NULL,Scale,slider-1,Default,0,1731448252922,g_o9,a,slider
1731449047,ac8ef7d9070aa6df9a0ed6d9872eac02,PennController,11,0,practice,NULL,Scale,slider-2,Choice,100,1731448261243,g_o9,a,183
1731449047,ac8ef7d9070aa6df9a0ed6d9872eac02,PennController,11,0,practice,NULL,Scale,slider-3,Default,0,1731448252924,g_o9,a,slider
1731449047,ac8ef7d9070aa6df9a0ed6d9872eac02,PennController,11,0,practice,NULL,PennController,20,_Trial_,End,1731448261752,g_o9,a,NULL
1731449047,ac8ef7d9070aa6df9a0ed6d9872eac02,PennController,12,0,practice,NULL,PennController,21,_Trial_,Start,1731448261755,g_o9,a,NULL
1731449047,ac8ef7d9070aa6df9a0ed6d9872eac02,PennController,12,0,practice,NULL,Selector,selection,Selection,incorrect,1731448282141,g_o9,a,correct;incorrect
1731449047,ac8ef7d9070aa6df9a0ed6d9872eac02,PennController,12,0,practice,NULL,PennController,21,_Trial_,End,1731448283600,g_o9,a,NULL
1731449047,ac8ef7d9070aa6df9a0ed6d9872eac02,PennController,13,0,practice,NULL,PennController,22,_Trial_,Start,1731448283603,g_o1,a,NULL
1731449047,ac8ef7d9070aa6df9a0ed6d9872eac02,PennController,13,0,practice,NULL,Image,image,Print,NA,1731448283604,g_o1,a,NULL
1731449047,ac8ef7d9070aa6df9a0ed6d9872eac02,PennController,13,0,practice,NULL,Scale,slider-1,Choice,100,1731448291594,g_o1,a,445
1731449047,ac8ef7d9070aa6df9a0ed6d9872eac02,PennController,13,0,practice,NULL,Scale,slider-2,Default,0,1731448283607,g_o1,a,slider
1731449047,ac8ef7d9070aa6df9a0ed6d9872eac02,PennController,13,0,practice,NULL,Scale,slider-3,Default,0,1731448283607,g_o1,a,slider
1731449047,ac8ef7d9070aa6df9a0ed6d9872eac02,PennController,13,0,practice,NULL,PennController,22,_Trial_,End,1731448293014,g_o1,a,NULL
# 13. Comments.
1731449047,ac8ef7d9070aa6df9a0ed6d9872eac02,PennController,14,0,practice-end,NULL,PennController,8,_Trial_,Start,1731448293017,NULL
1731449047,ac8ef7d9070aa6df9a0ed6d9872eac02,PennController,14,0,practice-end,NULL,PennController,8,_Trial_,End,1731448295234,NULL
# 13. id.
# 14. group.
# 15. Comments.
1731449047,ac8ef7d9070aa6df9a0ed6d9872eac02,PennController,15,0,trials-gumball,NULL,PennController,23,_Trial_,Start,1731448295236,g_p3,a,NULL
1731449047,ac8ef7d9070aa6df9a0ed6d9872eac02,PennController,15,0,trials-gumball,NULL,Image,image,Print,NA,1731448295238,g_p3,a,NULL
1731449047,ac8ef7d9070aa6df9a0ed6d9872eac02,PennController,15,0,trials-gumball,NULL,Scale,slider-1,Default,0,1731448295239,g_p3,a,slider
1731449047,ac8ef7d9070aa6df9a0ed6d9872eac02,PennController,15,0,trials-gumball,NULL,Scale,slider-2,Choice,100,1731448299265,g_p3,a,298
1731449047,ac8ef7d9070aa6df9a0ed6d9872eac02,PennController,15,0,trials-gumball,NULL,Scale,slider-3,Default,0,1731448295240,g_p3,a,slider
1731449047,ac8ef7d9070aa6df9a0ed6d9872eac02,PennController,15,0,trials-gumball,NULL,PennController,23,_Trial_,End,1731448300283,g_p3,a,NULL
1731449047,ac8ef7d9070aa6df9a0ed6d9872eac02,PennController,16,0,trials-gumball,NULL,PennController,24,_Trial_,Start,1731448300285,g_p5,a,NULL
1731449047,ac8ef7d9070aa6df9a0ed6d9872eac02,PennController,16,0,trials-gumball,NULL,Image,image,Print,NA,1731448300287,g_p5,a,NULL
1731449047,ac8ef7d9070aa6df9a0ed6d9872eac02,PennController,16,0,trials-gumball,NULL,Scale,slider-1,Choice,100,1731448304135,g_p5,a,273
1731449047,ac8ef7d9070aa6df9a0ed6d9872eac02,PennController,16,0,trials-gumball,NULL,Scale,slider-2,Default,0,1731448300288,g_p5,a,slider
1731449047,ac8ef7d9070aa6df9a0ed6d9872eac02,PennController,16,0,trials-gumball,NULL,Scale,slider-3,Default,0,1731448300289,g_p5,a,slider
1731449047,ac8ef7d9070aa6df9a0ed6d9872eac02,PennController,16,0,trials-gumball,NULL,PennController,24,_Trial_,End,1731448304859,g_p5,a,NULL
1731449047,ac8ef7d9070aa6df9a0ed6d9872eac02,PennController,17,0,trials-gumball,NULL,PennController,25,_Trial_,Start,1731448304860,g_p5,a,NULL
1731449047,ac8ef7d9070aa6df9a0ed6d9872eac02,PennController,17,0,trials-gumball,NULL,Selector,selection,Selection,incorrect,1731448306517,g_p5,a,correct;incorrect
1731449047,ac8ef7d9070aa6df9a0ed6d9872eac02,PennController,17,0,trials-gumball,NULL,PennController,25,_Trial_,End,1731448307525,g_p5,a,NULL
1731449047,ac8ef7d9070aa6df9a0ed6d9872eac02,PennController,18,0,trials-gumball,NULL,PennController,26,_Trial_,Start,1731448307526,g_p8,a,NULL
1731449047,ac8ef7d9070aa6df9a0ed6d9872eac02,PennController,18,0,trials-gumball,NULL,Image,image,Print,NA,1731448307527,g_p8,a,NULL
1731449047,ac8ef7d9070aa6df9a0ed6d9872eac02,PennController,18,0,trials-gumball,NULL,Scale,slider-1,Default,0,1731448307528,g_p8,a,slider
1731449047,ac8ef7d9070aa6df9a0ed6d9872eac02,PennController,18,0,trials-gumball,NULL,Scale,slider-2,Choice,100,1731448312628,g_p8,a,248
1731449047,ac8ef7d9070aa6df9a0ed6d9872eac02,PennController,18,0,trials-gumball,NULL,Scale,slider-3,Default,0,1731448307529,g_p8,a,slider
1731449047,ac8ef7d9070aa6df9a0ed6d9872eac02,PennController,18,0,trials-gumball,NULL,PennController,26,_Trial_,End,1731448313743,g_p8,a,NULL
1731449047,ac8ef7d9070aa6df9a0ed6d9872eac02,PennController,19,0,trials-gumball,NULL,PennController,27,_Trial_,Start,1731448313747,g_o1,a,NULL
1731449047,ac8ef7d9070aa6df9a0ed6d9872eac02,PennController,19,0,trials-gumball,NULL,Image,image,Print,NA,1731448313748,g_o1,a,NULL
1731449047,ac8ef7d9070aa6df9a0ed6d9872eac02,PennController,19,0,trials-gumball,NULL,Scale,slider-1,Choice,100,1731448316992,g_o1,a,253
1731449047,ac8ef7d9070aa6df9a0ed6d9872eac02,PennController,19,0,trials-gumball,NULL,Scale,slider-2,Choice,55,1731448316496,g_o1,a,1093
1731449047,ac8ef7d9070aa6df9a0ed6d9872eac02,PennController,19,0,trials-gumball,NULL,Scale,slider-3,Default,0,1731448313750,g_o1,a,slider
1731449047,ac8ef7d9070aa6df9a0ed6d9872eac02,PennController,19,0,trials-gumball,NULL,PennController,27,_Trial_,End,1731448318556,g_o1,a,NULL
1731449047,ac8ef7d9070aa6df9a0ed6d9872eac02,PennController,20,0,trials-gumball,NULL,PennController,28,_Trial_,Start,1731448318557,g_o1,a,NULL
1731449047,ac8ef7d9070aa6df9a0ed6d9872eac02,PennController,20,0,trials-gumball,NULL,Selector,selection,Selection,correct,1731448321635,g_o1,a,incorrect;correct
1731449047,ac8ef7d9070aa6df9a0ed6d9872eac02,PennController,20,0,trials-gumball,NULL,PennController,28,_Trial_,End,1731448322622,g_o1,a,NULL
1731449047,ac8ef7d9070aa6df9a0ed6d9872eac02,PennController,21,0,trials-gumball,NULL,PennController,29,_Trial_,Start,1731448322623,g_o3,a,NULL
1731449047,ac8ef7d9070aa6df9a0ed6d9872eac02,PennController,21,0,trials-gumball,NULL,Image,image,Print,NA,1731448322625,g_o3,a,NULL
1731449047,ac8ef7d9070aa6df9a0ed6d9872eac02,PennController,21,0,trials-gumball,NULL,Scale,slider-1,Choice,100,1731448325650,g_o3,a,250
1731449047,ac8ef7d9070aa6df9a0ed6d9872eac02,PennController,21,0,trials-gumball,NULL,Scale,slider-2,Default,0,1731448322627,g_o3,a,slider
1731449047,ac8ef7d9070aa6df9a0ed6d9872eac02,PennController,21,0,trials-gumball,NULL,Scale,slider-3,Default,0,1731448322627,g_o3,a,slider
1731449047,ac8ef7d9070aa6df9a0ed6d9872eac02,PennController,21,0,trials-gumball,NULL,PennController,29,_Trial_,End,1731448326964,g_o3,a,NULL
1731449047,ac8ef7d9070aa6df9a0ed6d9872eac02,PennController,22,0,trials-gumball,NULL,PennController,30,_Trial_,Start,1731448326966,g_o3,a,NULL
1731449047,ac8ef7d9070aa6df9a0ed6d9872eac02,PennController,22,0,trials-gumball,NULL,Selector,selection,Selection,incorrect,1731448331475,g_o3,a,incorrect;correct
1731449047,ac8ef7d9070aa6df9a0ed6d9872eac02,PennController,22,0,trials-gumball,NULL,PennController,30,_Trial_,End,1731448332680,g_o3,a,NULL
1731449047,ac8ef7d9070aa6df9a0ed6d9872eac02,PennController,23,0,trials-gumball,NULL,PennController,31,_Trial_,Start,1731448332682,g_o5,a,NULL
1731449047,ac8ef7d9070aa6df9a0ed6d9872eac02,PennController,23,0,trials-gumball,NULL,Image,image,Print,NA,1731448332684,g_o5,a,NULL
1731449047,ac8ef7d9070aa6df9a0ed6d9872eac02,PennController,23,0,trials-gumball,NULL,Scale,slider-1,Default,0,1731448332685,g_o5,a,slider
1731449047,ac8ef7d9070aa6df9a0ed6d9872eac02,PennController,23,0,trials-gumball,NULL,Scale,slider-2,Choice,100,1731448336424,g_o5,a,614
1731449047,ac8ef7d9070aa6df9a0ed6d9872eac02,PennController,23,0,trials-gumball,NULL,Scale,slider-3,Default,0,1731448332686,g_o5,a,slider
1731449047,ac8ef7d9070aa6df9a0ed6d9872eac02,PennController,23,0,trials-gumball,NULL,PennController,31,_Trial_,End,1731448337315,g_o5,a,NULL
1731449047,ac8ef7d9070aa6df9a0ed6d9872eac02,PennController,24,0,trials-gumball,NULL,PennController,32,_Trial_,Start,1731448337318,g_p9,a,NULL
1731449047,ac8ef7d9070aa6df9a0ed6d9872eac02,PennController,24,0,trials-gumball,NULL,Image,image,Print,NA,1731448337319,g_p9,a,NULL
1731449047,ac8ef7d9070aa6df9a0ed6d9872eac02,PennController,24,0,trials-gumball,NULL,Scale,slider-1,Choice,47,1731448340069,g_p9,a,43
1731449047,ac8ef7d9070aa6df9a0ed6d9872eac02,PennController,24,0,trials-gumball,NULL,Scale,slider-2,Default,0,1731448337321,g_p9,a,slider
1731449047,ac8ef7d9070aa6df9a0ed6d9872eac02,PennController,24,0,trials-gumball,NULL,Scale,slider-3,Default,0,1731448337321,g_p9,a,slider
1731449047,ac8ef7d9070aa6df9a0ed6d9872eac02,PennController,24,0,trials-gumball,NULL,PennController,32,_Trial_,End,1731448340910,g_p9,a,NULL
1731449047,ac8ef7d9070aa6df9a0ed6d9872eac02,PennController,25,0,trials-gumball,NULL,PennController,33,_Trial_,Start,1731448340911,g_p9,a,NULL
1731449047,ac8ef7d9070aa6df9a0ed6d9872eac02,PennController,25,0,trials-gumball,NULL,Selector,selection,Selection,correct,1731448344707,g_p9,a,incorrect;correct
1731449047,ac8ef7d9070aa6df9a0ed6d9872eac02,PennController,25,0,trials-gumball,NULL,PennController,33,_Trial_,End,1731448345806,g_p9,a,NULL
1731449047,ac8ef7d9070aa6df9a0ed6d9872eac02,PennController,26,0,trials-gumball,NULL,PennController,34,_Trial_,Start,1731448345808,g_o8,a,NULL
1731449047,ac8ef7d9070aa6df9a0ed6d9872eac02,PennController,26,0,trials-gumball,NULL,Image,image,Print,NA,1731448345810,g_o8,a,NULL
1731449047,ac8ef7d9070aa6df9a0ed6d9872eac02,PennController,26,0,trials-gumball,NULL,Scale,slider-1,Choice,100,1731448348724,g_o8,a,252
1731449047,ac8ef7d9070aa6df9a0ed6d9872eac02,PennController,26,0,trials-gumball,NULL,Scale,slider-2,Default,0,1731448345812,g_o8,a,slider
1731449047,ac8ef7d9070aa6df9a0ed6d9872eac02,PennController,26,0,trials-gumball,NULL,Scale,slider-3,Default,0,1731448345812,g_o8,a,slider
1731449047,ac8ef7d9070aa6df9a0ed6d9872eac02,PennController,26,0,trials-gumball,NULL,PennController,34,_Trial_,End,1731448349418,g_o8,a,NULL
1731449047,ac8ef7d9070aa6df9a0ed6d9872eac02,PennController,27,0,trials-gumball,NULL,PennController,35,_Trial_,Start,1731448349421,g_o7,a,NULL
1731449047,ac8ef7d9070aa6df9a0ed6d9872eac02,PennController,27,0,trials-gumball,NULL,Image,image,Print,NA,1731448349423,g_o7,a,NULL
1731449047,ac8ef7d9070aa6df9a0ed6d9872eac02,PennController,27,0,trials-gumball,NULL,Scale,slider-1,Choice,60,1731448350613,g_o7,a,93
1731449047,ac8ef7d9070aa6df9a0ed6d9872eac02,PennController,27,0,trials-gumball,NULL,Scale,slider-2,Default,0,1731448349424,g_o7,a,slider
1731449047,ac8ef7d9070aa6df9a0ed6d9872eac02,PennController,27,0,trials-gumball,NULL,Scale,slider-3,Default,0,1731448349425,g_o7,a,slider
1731449047,ac8ef7d9070aa6df9a0ed6d9872eac02,PennController,27,0,trials-gumball,NULL,PennController,35,_Trial_,End,1731448353648,g_o7,a,NULL
1731449047,ac8ef7d9070aa6df9a0ed6d9872eac02,PennController,28,0,trials-gumball,NULL,PennController,36,_Trial_,Start,1731448353651,g_p2,a,NULL
1731449047,ac8ef7d9070aa6df9a0ed6d9872eac02,PennController,28,0,trials-gumball,NULL,Image,image,Print,NA,1731448353653,g_p2,a,NULL
1731449047,ac8ef7d9070aa6df9a0ed6d9872eac02,PennController,28,0,trials-gumball,NULL,Scale,slider-1,Default,0,1731448353654,g_p2,a,slider
