#
# Results on Thu, 01 May 2025 17:42:07 GMT
# USER AGENT: Mozilla/5.0 (Macintosh; Intel Mac OS X 10_15_7) AppleWebKit/605.1.15 (KHTML, like Gecko) Version/18.4 Safari/605.1.15
# Design number was non-random = 0
#
# Columns below this comment are as follows:
# 1. Results reception time.
# 2. MD5 hash of participant's IP address.
# 3. Controller name.
# 4. Order number of item.
# 5. Inner element number.
# 6. Label.
# 7. Latin Square Group.
# 8. PennElementType.
# 9. PennElementName.
# 10. Parameter.
# 11. Value.
# 12. EventTime.
# 13. Comments.
1746121327,dfe3d6b133b7cfee1281a49c9159895a,PennController,1,0,consent,NULL,PennController,0,_Trial_,Start,1746120851187,NULL
1746121327,dfe3d6b133b7cfee1281a49c9159895a,PennController,1,0,consent,NULL,Html,consent_form,prolific_id,65bfbd86a1ec730270fe8345,1746120862281,text input
1746121327,dfe3d6b133b7cfee1281a49c9159895a,PennController,1,0,consent,NULL,PennController,0,_Trial_,End,1746120862282,NULL
1746121327,dfe3d6b133b7cfee1281a49c9159895a,PennController,1,0,consent,NULL,Html,consent_form,consent,checked,1746120862282,checkbox
1746121327,dfe3d6b133b7cfee1281a49c9159895a,PennController,2,0,instruction-start,NULL,PennController,1,_Trial_,Start,1746120862284,NULL
1746121327,dfe3d6b133b7cfee1281a49c9159895a,PennController,2,0,instruction-start,NULL,PennController,1,_Trial_,End,1746120892664,NULL
1746121327,dfe3d6b133b7cfee1281a49c9159895a,PennController,3,0,instruction-gumball,NULL,PennController,2,_Trial_,Start,1746120892666,NULL
1746121327,dfe3d6b133b7cfee1281a49c9159895a,PennController,3,0,instruction-gumball,NULL,PennController,2,_Trial_,End,1746120901470,NULL
1746121327,dfe3d6b133b7cfee1281a49c9159895a,PennController,4,0,instruction-A-1,NULL,PennController,3,_Trial_,Start,1746120901471,NULL
1746121327,dfe3d6b133b7cfee1281a49c9159895a,PennController,4,0,instruction-A-1,NULL,PennController,3,_Trial_,End,1746120905143,NULL
1746121327,dfe3d6b133b7cfee1281a49c9159895a,PennController,5,0,check-A-1,NULL,Button,go-back,Click,NA,Never,NULL
1746121327,dfe3d6b133b7cfee1281a49c9159895a,PennController,5,0,check-A-1,NULL,PennController,4,_Trial_,Start,1746120905144,NULL
1746121327,dfe3d6b133b7cfee1281a49c9159895a,PennController,5,0,check-A-1,NULL,Button,proceed,Click,Click,1746120912744,NULL
1746121327,dfe3d6b133b7cfee1281a49c9159895a,PennController,5,0,check-A-1,NULL,PennController,4,_Trial_,End,1746120912745,NULL
1746121327,dfe3d6b133b7cfee1281a49c9159895a,PennController,6,0,instruction-slider-1,NULL,PennController,5,_Trial_,Start,1746120912746,NULL
1746121327,dfe3d6b133b7cfee1281a49c9159895a,PennController,6,0,instruction-slider-1,NULL,PennController,5,_Trial_,End,1746120917053,NULL
1746121327,dfe3d6b133b7cfee1281a49c9159895a,PennController,7,0,check-slider-1,NULL,PennController,6,_Trial_,Start,1746120917055,NULL
1746121327,dfe3d6b133b7cfee1281a49c9159895a,PennController,7,0,check-slider-1,NULL,PennController,6,_Trial_,End,1746120925285,NULL
1746121327,dfe3d6b133b7cfee1281a49c9159895a,PennController,6,0,instruction-slider-1,NULL,PennController,5,_Trial_,Start,1746120925286,NULL
1746121327,dfe3d6b133b7cfee1281a49c9159895a,PennController,6,0,instruction-slider-1,NULL,PennController,5,_Trial_,End,1746120945650,NULL
1746121327,dfe3d6b133b7cfee1281a49c9159895a,PennController,7,0,check-slider-1,NULL,PennController,6,_Trial_,Start,1746120945651,NULL
1746121327,dfe3d6b133b7cfee1281a49c9159895a,PennController,7,0,check-slider-1,NULL,Button,proceed,Click,Click,1746120946683,NULL
1746121327,dfe3d6b133b7cfee1281a49c9159895a,PennController,7,0,check-slider-1,NULL,PennController,6,_Trial_,End,1746120946684,NULL
1746121327,dfe3d6b133b7cfee1281a49c9159895a,PennController,8,0,practice-gumball-start,NULL,PennController,7,_Trial_,Start,1746120946685,NULL
1746121327,dfe3d6b133b7cfee1281a49c9159895a,PennController,8,0,practice-gumball-start,NULL,PennController,7,_Trial_,End,1746120949179,NULL
# 13. id.
# 14. group.
# 15. Comments.
1746121327,dfe3d6b133b7cfee1281a49c9159895a,PennController,9,0,practice-gumball,NULL,PennController,22,_Trial_,Start,1746120949180,g_p1,a,NULL
1746121327,dfe3d6b133b7cfee1281a49c9159895a,PennController,9,0,practice-gumball,NULL,Scale,slider-1,Default,0,1746120949183,g_p1,a,slider
1746121327,dfe3d6b133b7cfee1281a49c9159895a,PennController,9,0,practice-gumball,NULL,Scale,slider-3,Default,0,1746120949184,g_p1,a,slider
1746121327,dfe3d6b133b7cfee1281a49c9159895a,PennController,9,0,practice-gumball,NULL,Scale,slider-2,Choice,100,1746120960814,g_p1,a,523
1746121327,dfe3d6b133b7cfee1281a49c9159895a,PennController,9,0,practice-gumball,NULL,PennController,22,_Trial_,End,1746120962357,g_p1,a,NULL
1746121327,dfe3d6b133b7cfee1281a49c9159895a,PennController,10,0,practice-gumball,NULL,PennController,23,_Trial_,Start,1746120962358,g_p9,a,NULL
1746121327,dfe3d6b133b7cfee1281a49c9159895a,PennController,10,0,practice-gumball,NULL,Scale,slider-3,Default,0,1746120962359,g_p9,a,slider
1746121327,dfe3d6b133b7cfee1281a49c9159895a,PennController,10,0,practice-gumball,NULL,Scale,slider-1,Choice,100,1746120966615,g_p9,a,334
1746121327,dfe3d6b133b7cfee1281a49c9159895a,PennController,10,0,practice-gumball,NULL,Scale,slider-2,Choice,100,1746120968114,g_p9,a,390
1746121327,dfe3d6b133b7cfee1281a49c9159895a,PennController,10,0,practice-gumball,NULL,PennController,23,_Trial_,End,1746120969110,g_p9,a,NULL
1746121327,dfe3d6b133b7cfee1281a49c9159895a,PennController,11,0,practice-gumball,NULL,PennController,24,_Trial_,Start,1746120969111,g_p9,a,NULL
1746121327,dfe3d6b133b7cfee1281a49c9159895a,PennController,11,0,practice-gumball,NULL,Selector,selection,Selection,correct,1746120971711,g_p9,a,correct;incorrect
1746121327,dfe3d6b133b7cfee1281a49c9159895a,PennController,11,0,practice-gumball,NULL,PennController,24,_Trial_,End,1746120973407,g_p9,a,NULL
# 13. Comments.
1746121327,dfe3d6b133b7cfee1281a49c9159895a,PennController,12,0,practice-gumball-end,NULL,PennController,8,_Trial_,Start,1746120973408,NULL
1746121327,dfe3d6b133b7cfee1281a49c9159895a,PennController,12,0,practice-gumball-end,NULL,PennController,8,_Trial_,End,1746120974547,NULL
# 13. id.
# 14. group.
# 15. Comments.
1746121327,dfe3d6b133b7cfee1281a49c9159895a,PennController,13,0,trials-gumball,NULL,PennController,25,_Trial_,Start,1746120974548,g_p8,a,NULL
1746121327,dfe3d6b133b7cfee1281a49c9159895a,PennController,13,0,trials-gumball,NULL,Scale,slider-3,Default,0,1746120974549,g_p8,a,slider
1746121327,dfe3d6b133b7cfee1281a49c9159895a,PennController,13,0,trials-gumball,NULL,Scale,slider-1,Choice,100,1746120995195,g_p8,a,1506
1746121327,dfe3d6b133b7cfee1281a49c9159895a,PennController,13,0,trials-gumball,NULL,Scale,slider-2,Choice,100,1746120996443,g_p8,a,256
1746121327,dfe3d6b133b7cfee1281a49c9159895a,PennController,13,0,trials-gumball,NULL,PennController,25,_Trial_,End,1746120997620,g_p8,a,NULL
1746121327,dfe3d6b133b7cfee1281a49c9159895a,PennController,14,0,trials-gumball,NULL,PennController,26,_Trial_,Start,1746120997621,g_p2,a,NULL
1746121327,dfe3d6b133b7cfee1281a49c9159895a,PennController,14,0,trials-gumball,NULL,Scale,slider-3,Default,0,1746120997622,g_p2,a,slider
1746121327,dfe3d6b133b7cfee1281a49c9159895a,PennController,14,0,trials-gumball,NULL,Scale,slider-1,Default,0,1746120997622,g_p2,a,slider
1746121327,dfe3d6b133b7cfee1281a49c9159895a,PennController,14,0,trials-gumball,NULL,Scale,slider-2,Choice,100,1746121001793,g_p2,a,191
1746121327,dfe3d6b133b7cfee1281a49c9159895a,PennController,14,0,trials-gumball,NULL,PennController,26,_Trial_,End,1746121003080,g_p2,a,NULL
1746121327,dfe3d6b133b7cfee1281a49c9159895a,PennController,15,0,trials-gumball,NULL,PennController,27,_Trial_,Start,1746121003082,g_p6,a,NULL
1746121327,dfe3d6b133b7cfee1281a49c9159895a,PennController,15,0,trials-gumball,NULL,Scale,slider-3,Default,0,1746121003083,g_p6,a,slider
1746121327,dfe3d6b133b7cfee1281a49c9159895a,PennController,15,0,trials-gumball,NULL,Scale,slider-2,Choice,100,1746121005676,g_p6,a,541
1746121327,dfe3d6b133b7cfee1281a49c9159895a,PennController,15,0,trials-gumball,NULL,Scale,slider-1,Choice,100,1746121007844,g_p6,a,240
1746121327,dfe3d6b133b7cfee1281a49c9159895a,PennController,15,0,trials-gumball,NULL,PennController,27,_Trial_,End,1746121009007,g_p6,a,NULL
1746121327,dfe3d6b133b7cfee1281a49c9159895a,PennController,16,0,trials-gumball,NULL,PennController,28,_Trial_,Start,1746121009008,g_p5,a,NULL
1746121327,dfe3d6b133b7cfee1281a49c9159895a,PennController,16,0,trials-gumball,NULL,Scale,slider-3,Default,0,1746121009009,g_p5,a,slider
1746121327,dfe3d6b133b7cfee1281a49c9159895a,PennController,16,0,trials-gumball,NULL,Scale,slider-1,Default,0,1746121009009,g_p5,a,slider
1746121327,dfe3d6b133b7cfee1281a49c9159895a,PennController,16,0,trials-gumball,NULL,Scale,slider-2,Choice,100,1746121012125,g_p5,a,223
1746121327,dfe3d6b133b7cfee1281a49c9159895a,PennController,16,0,trials-gumball,NULL,PennController,28,_Trial_,End,1746121012947,g_p5,a,NULL
1746121327,dfe3d6b133b7cfee1281a49c9159895a,PennController,17,0,trials-gumball,NULL,PennController,29,_Trial_,Start,1746121012948,g_p7,a,NULL
1746121327,dfe3d6b133b7cfee1281a49c9159895a,PennController,17,0,trials-gumball,NULL,Scale,slider-3,Default,0,1746121012949,g_p7,a,slider
1746121327,dfe3d6b133b7cfee1281a49c9159895a,PennController,17,0,trials-gumball,NULL,Scale,slider-1,Choice,100,1746121014920,g_p7,a,167
1746121327,dfe3d6b133b7cfee1281a49c9159895a,PennController,17,0,trials-gumball,NULL,Scale,slider-2,Choice,100,1746121016025,g_p7,a,185
1746121327,dfe3d6b133b7cfee1281a49c9159895a,PennController,17,0,trials-gumball,NULL,PennController,29,_Trial_,End,1746121017548,g_p7,a,NULL
1746121327,dfe3d6b133b7cfee1281a49c9159895a,PennController,18,0,trials-gumball,NULL,PennController,30,_Trial_,Start,1746121017549,g_p4,a,NULL
1746121327,dfe3d6b133b7cfee1281a49c9159895a,PennController,18,0,trials-gumball,NULL,Scale,slider-3,Default,0,1746121017550,g_p4,a,slider
1746121327,dfe3d6b133b7cfee1281a49c9159895a,PennController,18,0,trials-gumball,NULL,Scale,slider-1,Default,0,1746121017550,g_p4,a,slider
1746121327,dfe3d6b133b7cfee1281a49c9159895a,PennController,18,0,trials-gumball,NULL,Scale,slider-2,Choice,100,1746121019554,g_p4,a,234
1746121327,dfe3d6b133b7cfee1281a49c9159895a,PennController,18,0,trials-gumball,NULL,PennController,30,_Trial_,End,1746121020636,g_p4,a,NULL
1746121327,dfe3d6b133b7cfee1281a49c9159895a,PennController,19,0,trials-gumball,NULL,PennController,31,_Trial_,Start,1746121020637,g_p1,a,NULL
1746121327,dfe3d6b133b7cfee1281a49c9159895a,PennController,19,0,trials-gumball,NULL,Scale,slider-3,Default,0,1746121020638,g_p1,a,slider
1746121327,dfe3d6b133b7cfee1281a49c9159895a,PennController,19,0,trials-gumball,NULL,Scale,slider-1,Default,0,1746121020638,g_p1,a,slider
1746121327,dfe3d6b133b7cfee1281a49c9159895a,PennController,19,0,trials-gumball,NULL,Scale,slider-2,Choice,100,1746121022592,g_p1,a,235
1746121327,dfe3d6b133b7cfee1281a49c9159895a,PennController,19,0,trials-gumball,NULL,PennController,31,_Trial_,End,1746121023396,g_p1,a,NULL
1746121327,dfe3d6b133b7cfee1281a49c9159895a,PennController,20,0,trials-gumball,NULL,PennController,32,_Trial_,Start,1746121023397,g_p1,a,NULL
1746121327,dfe3d6b133b7cfee1281a49c9159895a,PennController,20,0,trials-gumball,NULL,Selector,selection,Selection,correct,1746121025199,g_p1,a,incorrect;correct
1746121327,dfe3d6b133b7cfee1281a49c9159895a,PennController,20,0,trials-gumball,NULL,PennController,32,_Trial_,End,1746121026024,g_p1,a,NULL
1746121327,dfe3d6b133b7cfee1281a49c9159895a,PennController,21,0,trials-gumball,NULL,PennController,33,_Trial_,Start,1746121026025,g_p3,a,NULL
1746121327,dfe3d6b133b7cfee1281a49c9159895a,PennController,21,0,trials-gumball,NULL,Scale,slider-1,Default,0,1746121026026,g_p3,a,slider
1746121327,dfe3d6b133b7cfee1281a49c9159895a,PennController,21,0,trials-gumball,NULL,Scale,slider-3,Default,0,1746121026027,g_p3,a,slider
1746121327,dfe3d6b133b7cfee1281a49c9159895a,PennController,21,0,trials-gumball,NULL,Scale,slider-2,Choice,100,1746121032310,g_p3,a,356
1746121327,dfe3d6b133b7cfee1281a49c9159895a,PennController,21,0,trials-gumball,NULL,PennController,33,_Trial_,End,1746121034188,g_p3,a,NULL
1746121327,dfe3d6b133b7cfee1281a49c9159895a,PennController,22,0,trials-gumball,NULL,PennController,34,_Trial_,Start,1746121034189,g_p3,a,NULL
1746121327,dfe3d6b133b7cfee1281a49c9159895a,PennController,22,0,trials-gumball,NULL,Selector,selection,Selection,correct,1746121037907,g_p3,a,incorrect;correct
1746121327,dfe3d6b133b7cfee1281a49c9159895a,PennController,22,0,trials-gumball,NULL,PennController,34,_Trial_,End,1746121038749,g_p3,a,NULL
1746121327,dfe3d6b133b7cfee1281a49c9159895a,PennController,23,0,trials-gumball,NULL,PennController,35,_Trial_,Start,1746121038750,g_p9,a,NULL
1746121327,dfe3d6b133b7cfee1281a49c9159895a,PennController,23,0,trials-gumball,NULL,Scale,slider-3,Default,0,1746121038751,g_p9,a,slider
1746121327,dfe3d6b133b7cfee1281a49c9159895a,PennController,23,0,trials-gumball,NULL,Scale,slider-1,Choice,100,1746121044874,g_p9,a,391
1746121327,dfe3d6b133b7cfee1281a49c9159895a,PennController,23,0,trials-gumball,NULL,Scale,slider-2,Choice,100,1746121046164,g_p9,a,353
1746121327,dfe3d6b133b7cfee1281a49c9159895a,PennController,23,0,trials-gumball,NULL,PennController,35,_Trial_,End,1746121048004,g_p9,a,NULL
1746121327,dfe3d6b133b7cfee1281a49c9159895a,PennController,24,0,trials-gumball,NULL,PennController,36,_Trial_,Start,1746121048005,g_p1,a,NULL
1746121327,dfe3d6b133b7cfee1281a49c9159895a,PennController,24,0,trials-gumball,NULL,Scale,slider-3,Default,0,1746121048007,g_p1,a,slider
1746121327,dfe3d6b133b7cfee1281a49c9159895a,PennController,24,0,trials-gumball,NULL,Scale,slider-1,Default,0,1746121048007,g_p1,a,slider
1746121327,dfe3d6b133b7cfee1281a49c9159895a,PennController,24,0,trials-gumball,NULL,Scale,slider-2,Choice,100,1746121049750,g_p1,a,208
1746121327,dfe3d6b133b7cfee1281a49c9159895a,PennController,24,0,trials-gumball,NULL,PennController,36,_Trial_,End,1746121052975,g_p1,a,NULL
1746121327,dfe3d6b133b7cfee1281a49c9159895a,PennController,25,0,trials-gumball,NULL,PennController,37,_Trial_,Start,1746121052976,g_p7,a,NULL
1746121327,dfe3d6b133b7cfee1281a49c9159895a,PennController,25,0,trials-gumball,NULL,Scale,slider-3,Default,0,1746121052977,g_p7,a,slider
1746121327,dfe3d6b133b7cfee1281a49c9159895a,PennController,25,0,trials-gumball,NULL,Scale,slider-2,Choice,100,1746121054731,g_p7,a,166
1746121327,dfe3d6b133b7cfee1281a49c9159895a,PennController,25,0,trials-gumball,NULL,Scale,slider-1,Choice,100,1746121055821,g_p7,a,202
1746121327,dfe3d6b133b7cfee1281a49c9159895a,PennController,25,0,trials-gumball,NULL,PennController,37,_Trial_,End,1746121056679,g_p7,a,NULL
1746121327,dfe3d6b133b7cfee1281a49c9159895a,PennController,26,0,trials-gumball,NULL,PennController,38,_Trial_,Start,1746121056680,g_p7,a,NULL
1746121327,dfe3d6b133b7cfee1281a49c9159895a,PennController,26,0,trials-gumball,NULL,Selector,selection,Selection,correct,1746121058915,g_p7,a,incorrect;correct
1746121327,dfe3d6b133b7cfee1281a49c9159895a,PennController,26,0,trials-gumball,NULL,PennController,38,_Trial_,End,1746121059475,g_p7,a,NULL
1746121327,dfe3d6b133b7cfee1281a49c9159895a,PennController,27,0,trials-gumball,NULL,PennController,39,_Trial_,Start,1746121059476,g_p4,a,NULL
1746121327,dfe3d6b133b7cfee1281a49c9159895a,PennController,27,0,trials-gumball,NULL,Scale,slider-3,Default,0,1746121059477,g_p4,a,slider
1746121327,dfe3d6b133b7cfee1281a49c9159895a,PennController,27,0,trials-gumball,NULL,Scale,slider-1,Default,0,1746121059477,g_p4,a,slider
1746121327,dfe3d6b133b7cfee1281a49c9159895a,PennController,27,0,trials-gumball,NULL,Scale,slider-2,Choice,100,1746121062673,g_p4,a,241
1746121327,dfe3d6b133b7cfee1281a49c9159895a,PennController,27,0,trials-gumball,NULL,PennController,39,_Trial_,End,1746121063944,g_p4,a,NULL
1746121327,dfe3d6b133b7cfee1281a49c9159895a,PennController,28,0,trials-gumball,NULL,PennController,40,_Trial_,Start,1746121063945,g_p4,a,NULL
1746121327,dfe3d6b133b7cfee1281a49c9159895a,PennController,28,0,trials-gumball,NULL,Selector,selection,Selection,correct,1746121065079,g_p4,a,correct;incorrect
1746121327,dfe3d6b133b7cfee1281a49c9159895a,PennController,28,0,trials-gumball,NULL,PennController,40,_Trial_,End,1746121065654,g_p4,a,NULL
1746121327,dfe3d6b133b7cfee1281a49c9159895a,PennController,29,0,trials-gumball,NULL,PennController,41,_Trial_,Start,1746121065655,g_p6,a,NULL
1746121327,dfe3d6b133b7cfee1281a49c9159895a,PennController,29,0,trials-gumball,NULL,Scale,slider-3,Default,0,1746121065656,g_p6,a,slider
1746121327,dfe3d6b133b7cfee1281a49c9159895a,PennController,29,0,trials-gumball,NULL,Scale,slider-1,Choice,100,1746121067943,g_p6,a,167
1746121327,dfe3d6b133b7cfee1281a49c9159895a,PennController,29,0,trials-gumball,NULL,Scale,slider-2,Choice,100,1746121069046,g_p6,a,183
1746121327,dfe3d6b133b7cfee1281a49c9159895a,PennController,29,0,trials-gumball,NULL,PennController,41,_Trial_,End,1746121069974,g_p6,a,NULL
1746121327,dfe3d6b133b7cfee1281a49c9159895a,PennController,30,0,trials-gumball,NULL,PennController,42,_Trial_,Start,1746121069975,g_p5,a,NULL
1746121327,dfe3d6b133b7cfee1281a49c9159895a,PennController,30,0,trials-gumball,NULL,Scale,slider-3,Default,0,1746121069976,g_p5,a,slider
1746121327,dfe3d6b133b7cfee1281a49c9159895a,PennController,30,0,trials-gumball,NULL,Scale,slider-1,Default,0,1746121069976,g_p5,a,slider
1746121327,dfe3d6b133b7cfee1281a49c9159895a,PennController,30,0,trials-gumball,NULL,Scale,slider-2,Choice,100,1746121071853,g_p5,a,224
1746121327,dfe3d6b133b7cfee1281a49c9159895a,PennController,30,0,trials-gumball,NULL,PennController,42,_Trial_,End,1746121072675,g_p5,a,NULL
1746121327,dfe3d6b133b7cfee1281a49c9159895a,PennController,31,0,trials-gumball,NULL,PennController,43,_Trial_,Start,1746121072676,g_p5,a,NULL
1746121327,dfe3d6b133b7cfee1281a49c9159895a,PennController,31,0,trials-gumball,NULL,Selector,selection,Selection,correct,1746121073659,g_p5,a,incorrect;correct
1746121327,dfe3d6b133b7cfee1281a49c9159895a,PennController,31,0,trials-gumball,NULL,PennController,43,_Trial_,End,1746121074017,g_p5,a,NULL
1746121327,dfe3d6b133b7cfee1281a49c9159895a,PennController,32,0,trials-gumball,NULL,PennController,44,_Trial_,Start,1746121074018,g_p9,a,NULL
1746121327,dfe3d6b133b7cfee1281a49c9159895a,PennController,32,0,trials-gumball,NULL,Scale,slider-3,Default,0,1746121074019,g_p9,a,slider
1746121327,dfe3d6b133b7cfee1281a49c9159895a,PennController,32,0,trials-gumball,NULL,Scale,slider-1,Choice,100,1746121075706,g_p9,a,135
1746121327,dfe3d6b133b7cfee1281a49c9159895a,PennController,32,0,trials-gumball,NULL,Scale,slider-2,Choice,100,1746121076775,g_p9,a,201
1746121327,dfe3d6b133b7cfee1281a49c9159895a,PennController,32,0,trials-gumball,NULL,PennController,44,_Trial_,End,1746121077660,g_p9,a,NULL
1746121327,dfe3d6b133b7cfee1281a49c9159895a,PennController,33,0,trials-gumball,NULL,PennController,45,_Trial_,Start,1746121077661,g_p3,a,NULL
1746121327,dfe3d6b133b7cfee1281a49c9159895a,PennController,33,0,trials-gumball,NULL,Scale,slider-3,Default,0,1746121077662,g_p3,a,slider
1746121327,dfe3d6b133b7cfee1281a49c9159895a,PennController,33,0,trials-gumball,NULL,Scale,slider-1,Default,0,1746121077662,g_p3,a,slider
1746121327,dfe3d6b133b7cfee1281a49c9159895a,PennController,33,0,trials-gumball,NULL,Scale,slider-2,Choice,100,1746121079398,g_p3,a,191
1746121327,dfe3d6b133b7cfee1281a49c9159895a,PennController,33,0,trials-gumball,NULL,PennController,45,_Trial_,End,1746121080159,g_p3,a,NULL
1746121327,dfe3d6b133b7cfee1281a49c9159895a,PennController,34,0,trials-gumball,NULL,PennController,46,_Trial_,Start,1746121080160,g_p3,a,NULL
1746121327,dfe3d6b133b7cfee1281a49c9159895a,PennController,34,0,trials-gumball,NULL,Selector,selection,Selection,correct,1746121081833,g_p3,a,correct;incorrect
1746121327,dfe3d6b133b7cfee1281a49c9159895a,PennController,34,0,trials-gumball,NULL,PennController,46,_Trial_,End,1746121082639,g_p3,a,NULL
1746121327,dfe3d6b133b7cfee1281a49c9159895a,PennController,35,0,trials-gumball,NULL,PennController,47,_Trial_,Start,1746121082640,g_p8,a,NULL
1746121327,dfe3d6b133b7cfee1281a49c9159895a,PennController,35,0,trials-gumball,NULL,Scale,slider-3,Default,0,1746121082641,g_p8,a,slider
1746121327,dfe3d6b133b7cfee1281a49c9159895a,PennController,35,0,trials-gumball,NULL,Scale,slider-1,Choice,100,1746121084597,g_p8,a,152
1746121327,dfe3d6b133b7cfee1281a49c9159895a,PennController,35,0,trials-gumball,NULL,Scale,slider-2,Choice,100,1746121085743,g_p8,a,207
1746121327,dfe3d6b133b7cfee1281a49c9159895a,PennController,35,0,trials-gumball,NULL,PennController,47,_Trial_,End,1746121086738,g_p8,a,NULL
1746121327,dfe3d6b133b7cfee1281a49c9159895a,PennController,36,0,trials-gumball,NULL,PennController,48,_Trial_,Start,1746121086738,g_p2,a,NULL
1746121327,dfe3d6b133b7cfee1281a49c9159895a,PennController,36,0,trials-gumball,NULL,Scale,slider-3,Default,0,1746121086740,g_p2,a,slider
1746121327,dfe3d6b133b7cfee1281a49c9159895a,PennController,36,0,trials-gumball,NULL,Scale,slider-1,Default,0,1746121086740,g_p2,a,slider
1746121327,dfe3d6b133b7cfee1281a49c9159895a,PennController,36,0,trials-gumball,NULL,Scale,slider-2,Choice,100,1746121088393,g_p2,a,351
1746121327,dfe3d6b133b7cfee1281a49c9159895a,PennController,36,0,trials-gumball,NULL,PennController,48,_Trial_,End,1746121089202,g_p2,a,NULL
# 13. Comments.
1746121327,dfe3d6b133b7cfee1281a49c9159895a,PennController,37,0,break-1,NULL,PennController,9,_Trial_,Start,1746121089203,NULL
1746121327,dfe3d6b133b7cfee1281a49c9159895a,PennController,37,0,break-1,NULL,PennController,9,_Trial_,End,1746121090685,NULL
1746121327,dfe3d6b133b7cfee1281a49c9159895a,PennController,38,0,instruction-unk-election,NULL,PennController,10,_Trial_,Start,1746121090686,NULL
1746121327,dfe3d6b133b7cfee1281a49c9159895a,PennController,38,0,instruction-unk-election,NULL,PennController,10,_Trial_,End,1746121099080,NULL
1746121327,dfe3d6b133b7cfee1281a49c9159895a,PennController,39,0,check-election-2,NULL,Button,go-back,Click,NA,Never,NULL
1746121327,dfe3d6b133b7cfee1281a49c9159895a,PennController,39,0,check-election-2,NULL,PennController,11,_Trial_,Start,1746121099080,NULL
1746121327,dfe3d6b133b7cfee1281a49c9159895a,PennController,39,0,check-election-2,NULL,Button,proceed,Click,Click,1746121106138,NULL
1746121327,dfe3d6b133b7cfee1281a49c9159895a,PennController,39,0,check-election-2,NULL,PennController,11,_Trial_,End,1746121106139,NULL
1746121327,dfe3d6b133b7cfee1281a49c9159895a,PennController,40,0,instruction-A-2,NULL,PennController,12,_Trial_,Start,1746121106139,NULL
1746121327,dfe3d6b133b7cfee1281a49c9159895a,PennController,40,0,instruction-A-2,NULL,PennController,12,_Trial_,End,1746121113316,NULL
1746121327,dfe3d6b133b7cfee1281a49c9159895a,PennController,41,0,check-A-2,NULL,Button,go-back,Click,NA,Never,NULL
1746121327,dfe3d6b133b7cfee1281a49c9159895a,PennController,41,0,check-A-2,NULL,PennController,13,_Trial_,Start,1746121113317,NULL
1746121327,dfe3d6b133b7cfee1281a49c9159895a,PennController,41,0,check-A-2,NULL,Button,proceed,Click,Click,1746121138634,NULL
1746121327,dfe3d6b133b7cfee1281a49c9159895a,PennController,41,0,check-A-2,NULL,PennController,13,_Trial_,End,1746121138635,NULL
1746121327,dfe3d6b133b7cfee1281a49c9159895a,PennController,42,0,instruction-slider-2,NULL,PennController,14,_Trial_,Start,1746121138636,NULL
1746121327,dfe3d6b133b7cfee1281a49c9159895a,PennController,42,0,instruction-slider-2,NULL,PennController,14,_Trial_,End,1746121140861,NULL
1746121327,dfe3d6b133b7cfee1281a49c9159895a,PennController,43,0,check-slider-2,NULL,PennController,15,_Trial_,Start,1746121140862,NULL
1746121327,dfe3d6b133b7cfee1281a49c9159895a,PennController,43,0,check-slider-2,NULL,PennController,15,_Trial_,End,1746121143783,NULL
1746121327,dfe3d6b133b7cfee1281a49c9159895a,PennController,43,0,check-slider-2,NULL,Button,proceed,Click,Click,1746121143783,NULL
1746121327,dfe3d6b133b7cfee1281a49c9159895a,PennController,44,0,practice-election-start,NULL,PennController,16,_Trial_,Start,1746121143784,NULL
1746121327,dfe3d6b133b7cfee1281a49c9159895a,PennController,44,0,practice-election-start,NULL,PennController,16,_Trial_,End,1746121145259,NULL
# 13. id.
# 14. group.
# 15. Comments.
1746121327,dfe3d6b133b7cfee1281a49c9159895a,PennController,45,0,practice-election,NULL,PennController,49,_Trial_,Start,1746121145260,e_x1,a,NULL
1746121327,dfe3d6b133b7cfee1281a49c9159895a,PennController,45,0,practice-election,NULL,Scale,slider-3,Default,0,1746121145261,e_x1,a,slider
1746121327,dfe3d6b133b7cfee1281a49c9159895a,PennController,45,0,practice-election,NULL,Scale,slider-1,Default,0,1746121145261,e_x1,a,slider
1746121327,dfe3d6b133b7cfee1281a49c9159895a,PennController,45,0,practice-election,NULL,Scale,slider-2,Choice,100,1746121150101,e_x1,a,271
1746121327,dfe3d6b133b7cfee1281a49c9159895a,PennController,45,0,practice-election,NULL,PennController,49,_Trial_,End,1746121152157,e_x1,a,NULL
1746121327,dfe3d6b133b7cfee1281a49c9159895a,PennController,46,0,practice-election,NULL,PennController,50,_Trial_,Start,1746121152158,e_x9,a,NULL
1746121327,dfe3d6b133b7cfee1281a49c9159895a,PennController,46,0,practice-election,NULL,Scale,slider-3,Default,0,1746121152159,e_x9,a,slider
1746121327,dfe3d6b133b7cfee1281a49c9159895a,PennController,46,0,practice-election,NULL,Scale,slider-1,Choice,100,1746121153594,e_x9,a,172
1746121327,dfe3d6b133b7cfee1281a49c9159895a,PennController,46,0,practice-election,NULL,Scale,slider-2,Choice,100,1746121154668,e_x9,a,186
1746121327,dfe3d6b133b7cfee1281a49c9159895a,PennController,46,0,practice-election,NULL,PennController,50,_Trial_,End,1746121155342,e_x9,a,NULL
1746121327,dfe3d6b133b7cfee1281a49c9159895a,PennController,47,0,practice-election,NULL,PennController,51,_Trial_,Start,1746121155343,e_x9,a,NULL
1746121327,dfe3d6b133b7cfee1281a49c9159895a,PennController,47,0,practice-election,NULL,Selector,selection,Selection,correct,1746121156359,e_x9,a,incorrect;correct
1746121327,dfe3d6b133b7cfee1281a49c9159895a,PennController,47,0,practice-election,NULL,PennController,51,_Trial_,End,1746121156774,e_x9,a,NULL
# 13. Comments.
1746121327,dfe3d6b133b7cfee1281a49c9159895a,PennController,48,0,practice-election-end,NULL,PennController,17,_Trial_,Start,1746121156775,NULL
1746121327,dfe3d6b133b7cfee1281a49c9159895a,PennController,48,0,practice-election-end,NULL,PennController,17,_Trial_,End,1746121157612,NULL
# 13. id.
# 14. group.
# 15. Comments.
1746121327,dfe3d6b133b7cfee1281a49c9159895a,PennController,49,0,trials-unk-election,NULL,PennController,52,_Trial_,Start,1746121157612,e_x4,a,NULL
1746121327,dfe3d6b133b7cfee1281a49c9159895a,PennController,49,0,trials-unk-election,NULL,Scale,slider-3,Default,0,1746121157614,e_x4,a,slider
1746121327,dfe3d6b133b7cfee1281a49c9159895a,PennController,49,0,trials-unk-election,NULL,Scale,slider-1,Default,0,1746121157614,e_x4,a,slider
1746121327,dfe3d6b133b7cfee1281a49c9159895a,PennController,49,0,trials-unk-election,NULL,Scale,slider-2,Choice,100,1746121161124,e_x4,a,187
1746121327,dfe3d6b133b7cfee1281a49c9159895a,PennController,49,0,trials-unk-election,NULL,PennController,52,_Trial_,End,1746121161943,e_x4,a,NULL
1746121327,dfe3d6b133b7cfee1281a49c9159895a,PennController,50,0,trials-unk-election,NULL,PennController,53,_Trial_,Start,1746121161944,e_x5,a,NULL
1746121327,dfe3d6b133b7cfee1281a49c9159895a,PennController,50,0,trials-unk-election,NULL,Scale,slider-1,Default,0,1746121161945,e_x5,a,slider
1746121327,dfe3d6b133b7cfee1281a49c9159895a,PennController,50,0,trials-unk-election,NULL,Scale,slider-3,Default,0,1746121161946,e_x5,a,slider
1746121327,dfe3d6b133b7cfee1281a49c9159895a,PennController,50,0,trials-unk-election,NULL,Scale,slider-2,Choice,100,1746121163398,e_x5,a,185
1746121327,dfe3d6b133b7cfee1281a49c9159895a,PennController,50,0,trials-unk-election,NULL,PennController,53,_Trial_,End,1746121164086,e_x5,a,NULL
1746121327,dfe3d6b133b7cfee1281a49c9159895a,PennController,51,0,trials-unk-election,NULL,PennController,54,_Trial_,Start,1746121164088,e_x3,a,NULL
1746121327,dfe3d6b133b7cfee1281a49c9159895a,PennController,51,0,trials-unk-election,NULL,Scale,slider-1,Default,0,1746121164089,e_x3,a,slider
1746121327,dfe3d6b133b7cfee1281a49c9159895a,PennController,51,0,trials-unk-election,NULL,Scale,slider-3,Default,0,1746121164090,e_x3,a,slider
1746121327,dfe3d6b133b7cfee1281a49c9159895a,PennController,51,0,trials-unk-election,NULL,Scale,slider-2,Choice,100,1746121165962,e_x3,a,154
1746121327,dfe3d6b133b7cfee1281a49c9159895a,PennController,51,0,trials-unk-election,NULL,PennController,54,_Trial_,End,1746121166682,e_x3,a,NULL
1746121327,dfe3d6b133b7cfee1281a49c9159895a,PennController,52,0,trials-unk-election,NULL,PennController,55,_Trial_,Start,1746121166683,e_x1,a,NULL
1746121327,dfe3d6b133b7cfee1281a49c9159895a,PennController,52,0,trials-unk-election,NULL,Scale,slider-3,Default,0,1746121166684,e_x1,a,slider
1746121327,dfe3d6b133b7cfee1281a49c9159895a,PennController,52,0,trials-unk-election,NULL,Scale,slider-1,Default,0,1746121166684,e_x1,a,slider
1746121327,dfe3d6b133b7cfee1281a49c9159895a,PennController,52,0,trials-unk-election,NULL,Scale,slider-2,Choice,100,1746121169402,e_x1,a,205
1746121327,dfe3d6b133b7cfee1281a49c9159895a,PennController,52,0,trials-unk-election,NULL,PennController,55,_Trial_,End,1746121170159,e_x1,a,NULL
1746121327,dfe3d6b133b7cfee1281a49c9159895a,PennController,53,0,trials-unk-election,NULL,PennController,56,_Trial_,Start,1746121170160,e_x1,a,NULL
1746121327,dfe3d6b133b7cfee1281a49c9159895a,PennController,53,0,trials-unk-election,NULL,Selector,selection,Selection,correct,1746121171562,e_x1,a,incorrect;correct
1746121327,dfe3d6b133b7cfee1281a49c9159895a,PennController,53,0,trials-unk-election,NULL,PennController,56,_Trial_,End,1746121171937,e_x1,a,NULL
1746121327,dfe3d6b133b7cfee1281a49c9159895a,PennController,54,0,trials-unk-election,NULL,PennController,57,_Trial_,Start,1746121171937,e_x9,a,NULL
1746121327,dfe3d6b133b7cfee1281a49c9159895a,PennController,54,0,trials-unk-election,NULL,Scale,slider-3,Default,0,1746121171938,e_x9,a,slider
1746121327,dfe3d6b133b7cfee1281a49c9159895a,PennController,54,0,trials-unk-election,NULL,Scale,slider-1,Choice,100,1746121173748,e_x9,a,157
1746121327,dfe3d6b133b7cfee1281a49c9159895a,PennController,54,0,trials-unk-election,NULL,Scale,slider-2,Choice,100,1746121174895,e_x9,a,223
1746121327,dfe3d6b133b7cfee1281a49c9159895a,PennController,54,0,trials-unk-election,NULL,PennController,57,_Trial_,End,1746121175584,e_x9,a,NULL
1746121327,dfe3d6b133b7cfee1281a49c9159895a,PennController,55,0,trials-unk-election,NULL,PennController,58,_Trial_,Start,1746121175585,e_x7,a,NULL
1746121327,dfe3d6b133b7cfee1281a49c9159895a,PennController,55,0,trials-unk-election,NULL,Scale,slider-3,Default,0,1746121175586,e_x7,a,slider
1746121327,dfe3d6b133b7cfee1281a49c9159895a,PennController,55,0,trials-unk-election,NULL,Scale,slider-1,Choice,100,1746121176990,e_x7,a,157
1746121327,dfe3d6b133b7cfee1281a49c9159895a,PennController,55,0,trials-unk-election,NULL,Scale,slider-2,Choice,100,1746121177900,e_x7,a,158
1746121327,dfe3d6b133b7cfee1281a49c9159895a,PennController,55,0,trials-unk-election,NULL,PennController,58,_Trial_,End,1746121178581,e_x7,a,NULL
1746121327,dfe3d6b133b7cfee1281a49c9159895a,PennController,56,0,trials-unk-election,NULL,PennController,59,_Trial_,Start,1746121178582,e_x6,a,NULL
1746121327,dfe3d6b133b7cfee1281a49c9159895a,PennController,56,0,trials-unk-election,NULL,Scale,slider-3,Default,0,1746121178583,e_x6,a,slider
1746121327,dfe3d6b133b7cfee1281a49c9159895a,PennController,56,0,trials-unk-election,NULL,Scale,slider-2,Choice,100,1746121180291,e_x6,a,153
1746121327,dfe3d6b133b7cfee1281a49c9159895a,PennController,56,0,trials-unk-election,NULL,Scale,slider-1,Choice,100,1746121181400,e_x6,a,159
1746121327,dfe3d6b133b7cfee1281a49c9159895a,PennController,56,0,trials-unk-election,NULL,PennController,59,_Trial_,End,1746121182088,e_x6,a,NULL
1746121327,dfe3d6b133b7cfee1281a49c9159895a,PennController,57,0,trials-unk-election,NULL,PennController,60,_Trial_,Start,1746121182089,e_x2,a,NULL
1746121327,dfe3d6b133b7cfee1281a49c9159895a,PennController,57,0,trials-unk-election,NULL,Scale,slider-3,Default,0,1746121182090,e_x2,a,slider
1746121327,dfe3d6b133b7cfee1281a49c9159895a,PennController,57,0,trials-unk-election,NULL,Scale,slider-1,Default,0,1746121182090,e_x2,a,slider
1746121327,dfe3d6b133b7cfee1281a49c9159895a,PennController,57,0,trials-unk-election,NULL,Scale,slider-2,Choice,100,1746121183762,e_x2,a,255
1746121327,dfe3d6b133b7cfee1281a49c9159895a,PennController,57,0,trials-unk-election,NULL,PennController,60,_Trial_,End,1746121184393,e_x2,a,NULL
1746121327,dfe3d6b133b7cfee1281a49c9159895a,PennController,58,0,trials-unk-election,NULL,PennController,61,_Trial_,Start,1746121184394,e_x2,a,NULL
1746121327,dfe3d6b133b7cfee1281a49c9159895a,PennController,58,0,trials-unk-election,NULL,Selector,selection,Selection,correct,1746121186195,e_x2,a,incorrect;correct
1746121327,dfe3d6b133b7cfee1281a49c9159895a,PennController,58,0,trials-unk-election,NULL,PennController,61,_Trial_,End,1746121186622,e_x2,a,NULL
1746121327,dfe3d6b133b7cfee1281a49c9159895a,PennController,59,0,trials-unk-election,NULL,PennController,62,_Trial_,Start,1746121186623,e_x8,a,NULL
1746121327,dfe3d6b133b7cfee1281a49c9159895a,PennController,59,0,trials-unk-election,NULL,Scale,slider-3,Default,0,1746121186624,e_x8,a,slider
1746121327,dfe3d6b133b7cfee1281a49c9159895a,PennController,59,0,trials-unk-election,NULL,Scale,slider-1,Choice,100,1746121188914,e_x8,a,136
1746121327,dfe3d6b133b7cfee1281a49c9159895a,PennController,59,0,trials-unk-election,NULL,Scale,slider-2,Choice,100,1746121190057,e_x8,a,292
1746121327,dfe3d6b133b7cfee1281a49c9159895a,PennController,59,0,trials-unk-election,NULL,PennController,62,_Trial_,End,1746121190793,e_x8,a,NULL
1746121327,dfe3d6b133b7cfee1281a49c9159895a,PennController,60,0,trials-unk-election,NULL,PennController,63,_Trial_,Start,1746121190794,e_x7,a,NULL
1746121327,dfe3d6b133b7cfee1281a49c9159895a,PennController,60,0,trials-unk-election,NULL,Scale,slider-3,Default,0,1746121190795,e_x7,a,slider
1746121327,dfe3d6b133b7cfee1281a49c9159895a,PennController,60,0,trials-unk-election,NULL,Scale,slider-2,Choice,100,1746121192126,e_x7,a,143
1746121327,dfe3d6b133b7cfee1281a49c9159895a,PennController,60,0,trials-unk-election,NULL,Scale,slider-1,Choice,100,1746121193299,e_x7,a,189
1746121327,dfe3d6b133b7cfee1281a49c9159895a,PennController,60,0,trials-unk-election,NULL,PennController,63,_Trial_,End,1746121194036,e_x7,a,NULL
1746121327,dfe3d6b133b7cfee1281a49c9159895a,PennController,61,0,trials-unk-election,NULL,PennController,64,_Trial_,Start,1746121194037,e_x5,a,NULL
1746121327,dfe3d6b133b7cfee1281a49c9159895a,PennController,61,0,trials-unk-election,NULL,Scale,slider-3,Default,0,1746121194038,e_x5,a,slider
1746121327,dfe3d6b133b7cfee1281a49c9159895a,PennController,61,0,trials-unk-election,NULL,Scale,slider-1,Default,0,1746121194038,e_x5,a,slider
1746121327,dfe3d6b133b7cfee1281a49c9159895a,PennController,61,0,trials-unk-election,NULL,Scale,slider-2,Choice,100,1746121195271,e_x5,a,142
1746121327,dfe3d6b133b7cfee1281a49c9159895a,PennController,61,0,trials-unk-election,NULL,PennController,64,_Trial_,End,1746121195921,e_x5,a,NULL
1746121327,dfe3d6b133b7cfee1281a49c9159895a,PennController,62,0,trials-unk-election,NULL,PennController,65,_Trial_,Start,1746121195922,e_x5,a,NULL
1746121327,dfe3d6b133b7cfee1281a49c9159895a,PennController,62,0,trials-unk-election,NULL,Selector,selection,Selection,correct,1746121197140,e_x5,a,correct;incorrect
1746121327,dfe3d6b133b7cfee1281a49c9159895a,PennController,62,0,trials-unk-election,NULL,PennController,65,_Trial_,End,1746121198086,e_x5,a,NULL
1746121327,dfe3d6b133b7cfee1281a49c9159895a,PennController,63,0,trials-unk-election,NULL,PennController,66,_Trial_,Start,1746121198087,e_x2,a,NULL
1746121327,dfe3d6b133b7cfee1281a49c9159895a,PennController,63,0,trials-unk-election,NULL,Scale,slider-3,Default,0,1746121198088,e_x2,a,slider
1746121327,dfe3d6b133b7cfee1281a49c9159895a,PennController,63,0,trials-unk-election,NULL,Scale,slider-1,Default,0,1746121198088,e_x2,a,slider
1746121327,dfe3d6b133b7cfee1281a49c9159895a,PennController,63,0,trials-unk-election,NULL,Scale,slider-2,Choice,100,1746121200522,e_x2,a,151
1746121327,dfe3d6b133b7cfee1281a49c9159895a,PennController,63,0,trials-unk-election,NULL,PennController,66,_Trial_,End,1746121201761,e_x2,a,NULL
1746121327,dfe3d6b133b7cfee1281a49c9159895a,PennController,64,0,trials-unk-election,NULL,PennController,67,_Trial_,Start,1746121201763,e_x2,a,NULL
1746121327,dfe3d6b133b7cfee1281a49c9159895a,PennController,64,0,trials-unk-election,NULL,Selector,selection,Selection,correct,1746121202897,e_x2,a,incorrect;correct
1746121327,dfe3d6b133b7cfee1281a49c9159895a,PennController,64,0,trials-unk-election,NULL,PennController,67,_Trial_,End,1746121203238,e_x2,a,NULL
1746121327,dfe3d6b133b7cfee1281a49c9159895a,PennController,65,0,trials-unk-election,NULL,PennController,68,_Trial_,Start,1746121203239,e_x8,a,NULL
1746121327,dfe3d6b133b7cfee1281a49c9159895a,PennController,65,0,trials-unk-election,NULL,Scale,slider-3,Default,0,1746121203240,e_x8,a,slider
1746121327,dfe3d6b133b7cfee1281a49c9159895a,PennController,65,0,trials-unk-election,NULL,Scale,slider-2,Choice,100,1746121205525,e_x8,a,265
1746121327,dfe3d6b133b7cfee1281a49c9159895a,PennController,65,0,trials-unk-election,NULL,Scale,slider-1,Choice,100,1746121206425,e_x8,a,149
1746121327,dfe3d6b133b7cfee1281a49c9159895a,PennController,65,0,trials-unk-election,NULL,PennController,68,_Trial_,End,1746121207115,e_x8,a,NULL
1746121327,dfe3d6b133b7cfee1281a49c9159895a,PennController,66,0,trials-unk-election,NULL,PennController,69,_Trial_,Start,1746121207116,e_x8,a,NULL
1746121327,dfe3d6b133b7cfee1281a49c9159895a,PennController,66,0,trials-unk-election,NULL,Selector,selection,Selection,correct,1746121207998,e_x8,a,incorrect;correct
1746121327,dfe3d6b133b7cfee1281a49c9159895a,PennController,66,0,trials-unk-election,NULL,PennController,69,_Trial_,End,1746121208370,e_x8,a,NULL
1746121327,dfe3d6b133b7cfee1281a49c9159895a,PennController,67,0,trials-unk-election,NULL,PennController,70,_Trial_,Start,1746121208370,e_x1,a,NULL
1746121327,dfe3d6b133b7cfee1281a49c9159895a,PennController,67,0,trials-unk-election,NULL,Scale,slider-1,Default,0,1746121208371,e_x1,a,slider
1746121327,dfe3d6b133b7cfee1281a49c9159895a,PennController,67,0,trials-unk-election,NULL,Scale,slider-3,Default,0,1746121208372,e_x1,a,slider
1746121327,dfe3d6b133b7cfee1281a49c9159895a,PennController,67,0,trials-unk-election,NULL,Scale,slider-2,Choice,100,1746121210008,e_x1,a,136
1746121327,dfe3d6b133b7cfee1281a49c9159895a,PennController,67,0,trials-unk-election,NULL,PennController,70,_Trial_,End,1746121210797,e_x1,a,NULL
1746121327,dfe3d6b133b7cfee1281a49c9159895a,PennController,68,0,trials-unk-election,NULL,PennController,71,_Trial_,Start,1746121210797,e_x3,a,NULL
1746121327,dfe3d6b133b7cfee1281a49c9159895a,PennController,68,0,trials-unk-election,NULL,Scale,slider-1,Default,0,1746121210798,e_x3,a,slider
1746121327,dfe3d6b133b7cfee1281a49c9159895a,PennController,68,0,trials-unk-election,NULL,Scale,slider-3,Default,0,1746121210799,e_x3,a,slider
1746121327,dfe3d6b133b7cfee1281a49c9159895a,PennController,68,0,trials-unk-election,NULL,Scale,slider-2,Choice,100,1746121212599,e_x3,a,132
1746121327,dfe3d6b133b7cfee1281a49c9159895a,PennController,68,0,trials-unk-election,NULL,PennController,71,_Trial_,End,1746121213754,e_x3,a,NULL
1746121327,dfe3d6b133b7cfee1281a49c9159895a,PennController,69,0,trials-unk-election,NULL,PennController,72,_Trial_,Start,1746121213754,e_x6,a,NULL
1746121327,dfe3d6b133b7cfee1281a49c9159895a,PennController,69,0,trials-unk-election,NULL,Scale,slider-3,Default,0,1746121213755,e_x6,a,slider
1746121327,dfe3d6b133b7cfee1281a49c9159895a,PennController,69,0,trials-unk-election,NULL,Scale,slider-2,Choice,100,1746121215216,e_x6,a,153
1746121327,dfe3d6b133b7cfee1281a49c9159895a,PennController,69,0,trials-unk-election,NULL,Scale,slider-1,Choice,100,1746121216302,e_x6,a,185
1746121327,dfe3d6b133b7cfee1281a49c9159895a,PennController,69,0,trials-unk-election,NULL,PennController,72,_Trial_,End,1746121217086,e_x6,a,NULL
1746121327,dfe3d6b133b7cfee1281a49c9159895a,PennController,70,0,trials-unk-election,NULL,PennController,73,_Trial_,Start,1746121217087,e_x6,a,NULL
1746121327,dfe3d6b133b7cfee1281a49c9159895a,PennController,70,0,trials-unk-election,NULL,Selector,selection,Selection,correct,1746121218137,e_x6,a,incorrect;correct
1746121327,dfe3d6b133b7cfee1281a49c9159895a,PennController,70,0,trials-unk-election,NULL,PennController,73,_Trial_,End,1746121218493,e_x6,a,NULL
1746121327,dfe3d6b133b7cfee1281a49c9159895a,PennController,71,0,trials-unk-election,NULL,PennController,74,_Trial_,Start,1746121218494,e_x4,a,NULL
1746121327,dfe3d6b133b7cfee1281a49c9159895a,PennController,71,0,trials-unk-election,NULL,Scale,slider-1,Default,0,1746121218495,e_x4,a,slider
1746121327,dfe3d6b133b7cfee1281a49c9159895a,PennController,71,0,trials-unk-election,NULL,Scale,slider-3,Default,0,1746121218496,e_x4,a,slider
1746121327,dfe3d6b133b7cfee1281a49c9159895a,PennController,71,0,trials-unk-election,NULL,Scale,slider-2,Choice,100,1746121221417,e_x4,a,153
1746121327,dfe3d6b133b7cfee1281a49c9159895a,PennController,71,0,trials-unk-election,NULL,PennController,74,_Trial_,End,1746121222154,e_x4,a,NULL
1746121327,dfe3d6b133b7cfee1281a49c9159895a,PennController,72,0,trials-unk-election,NULL,PennController,75,_Trial_,Start,1746121222155,e_x9,a,NULL
1746121327,dfe3d6b133b7cfee1281a49c9159895a,PennController,72,0,trials-unk-election,NULL,Scale,slider-3,Default,0,1746121222157,e_x9,a,slider
1746121327,dfe3d6b133b7cfee1281a49c9159895a,PennController,72,0,trials-unk-election,NULL,Scale,slider-1,Choice,100,1746121223598,e_x9,a,139
1746121327,dfe3d6b133b7cfee1281a49c9159895a,PennController,72,0,trials-unk-election,NULL,Scale,slider-2,Choice,100,1746121224800,e_x9,a,186
1746121327,dfe3d6b133b7cfee1281a49c9159895a,PennController,72,0,trials-unk-election,NULL,PennController,75,_Trial_,End,1746121226722,e_x9,a,NULL
# 13. Comments.
1746121327,dfe3d6b133b7cfee1281a49c9159895a,PennController,73,0,break-2,NULL,PennController,18,_Trial_,Start,1746121226722,NULL
1746121327,dfe3d6b133b7cfee1281a49c9159895a,PennController,73,0,break-2,NULL,PennController,18,_Trial_,End,1746121227908,NULL
1746121327,dfe3d6b133b7cfee1281a49c9159895a,PennController,74,0,interpretation-A-instruction,NULL,PennController,76,_Trial_,Start,1746121227908,NULL
1746121327,dfe3d6b133b7cfee1281a49c9159895a,PennController,74,0,interpretation-A-instruction,NULL,PennController,76,_Trial_,End,1746121232028,NULL
# 13. id.
# 14. group.
# 15. Comments.
1746121327,dfe3d6b133b7cfee1281a49c9159895a,PennController,75,0,interpretation-A-trials,NULL,PennController,77,_Trial_,Start,1746121232028,g_p2,a,NULL
1746121327,dfe3d6b133b7cfee1281a49c9159895a,PennController,75,0,interpretation-A-trials,NULL,Scale,interpretation,Choice,20%,1746121237754,g_p2,a,NULL
1746121327,dfe3d6b133b7cfee1281a49c9159895a,PennController,75,0,interpretation-A-trials,NULL,Scale,interpretation,90%,unchecked,1746121243774,g_p2,a,Status
1746121327,dfe3d6b133b7cfee1281a49c9159895a,PennController,75,0,interpretation-A-trials,NULL,Scale,interpretation,80%,unchecked,1746121243774,g_p2,a,Status
1746121327,dfe3d6b133b7cfee1281a49c9159895a,PennController,75,0,interpretation-A-trials,NULL,Scale,interpretation,70%,unchecked,1746121243774,g_p2,a,Status
1746121327,dfe3d6b133b7cfee1281a49c9159895a,PennController,75,0,interpretation-A-trials,NULL,Scale,interpretation,60%,unchecked,1746121243774,g_p2,a,Status
1746121327,dfe3d6b133b7cfee1281a49c9159895a,PennController,75,0,interpretation-A-trials,NULL,Scale,interpretation,50%,unchecked,1746121243774,g_p2,a,Status
1746121327,dfe3d6b133b7cfee1281a49c9159895a,PennController,75,0,interpretation-A-trials,NULL,Scale,interpretation,40%,unchecked,1746121243774,g_p2,a,Status
1746121327,dfe3d6b133b7cfee1281a49c9159895a,PennController,75,0,interpretation-A-trials,NULL,Scale,interpretation,30%,unchecked,1746121243774,g_p2,a,Status
1746121327,dfe3d6b133b7cfee1281a49c9159895a,PennController,75,0,interpretation-A-trials,NULL,Scale,interpretation,20%,checked,1746121243774,g_p2,a,Status
1746121327,dfe3d6b133b7cfee1281a49c9159895a,PennController,75,0,interpretation-A-trials,NULL,Scale,interpretation,10%,unchecked,1746121243774,g_p2,a,Status
1746121327,dfe3d6b133b7cfee1281a49c9159895a,PennController,75,0,interpretation-A-trials,NULL,PennController,77,_Trial_,End,1746121243775,g_p2,a,NULL
1746121327,dfe3d6b133b7cfee1281a49c9159895a,PennController,76,0,interpretation-A-trials,NULL,PennController,78,_Trial_,Start,1746121243775,g_p6,a,NULL
1746121327,dfe3d6b133b7cfee1281a49c9159895a,PennController,76,0,interpretation-A-trials,NULL,Scale,interpretation,Choice,60%,1746121246318,g_p6,a,NULL
1746121327,dfe3d6b133b7cfee1281a49c9159895a,PennController,76,0,interpretation-A-trials,NULL,PennController,78,_Trial_,End,1746121250532,g_p6,a,NULL
1746121327,dfe3d6b133b7cfee1281a49c9159895a,PennController,76,0,interpretation-A-trials,NULL,Scale,interpretation,90%,unchecked,1746121250532,g_p6,a,Status
1746121327,dfe3d6b133b7cfee1281a49c9159895a,PennController,76,0,interpretation-A-trials,NULL,Scale,interpretation,80%,unchecked,1746121250532,g_p6,a,Status
1746121327,dfe3d6b133b7cfee1281a49c9159895a,PennController,76,0,interpretation-A-trials,NULL,Scale,interpretation,70%,unchecked,1746121250532,g_p6,a,Status
1746121327,dfe3d6b133b7cfee1281a49c9159895a,PennController,76,0,interpretation-A-trials,NULL,Scale,interpretation,60%,checked,1746121250532,g_p6,a,Status
1746121327,dfe3d6b133b7cfee1281a49c9159895a,PennController,76,0,interpretation-A-trials,NULL,Scale,interpretation,50%,unchecked,1746121250532,g_p6,a,Status
1746121327,dfe3d6b133b7cfee1281a49c9159895a,PennController,76,0,interpretation-A-trials,NULL,Scale,interpretation,40%,unchecked,1746121250532,g_p6,a,Status
1746121327,dfe3d6b133b7cfee1281a49c9159895a,PennController,76,0,interpretation-A-trials,NULL,Scale,interpretation,30%,unchecked,1746121250532,g_p6,a,Status
1746121327,dfe3d6b133b7cfee1281a49c9159895a,PennController,76,0,interpretation-A-trials,NULL,Scale,interpretation,20%,unchecked,1746121250532,g_p6,a,Status
1746121327,dfe3d6b133b7cfee1281a49c9159895a,PennController,76,0,interpretation-A-trials,NULL,Scale,interpretation,10%,unchecked,1746121250532,g_p6,a,Status
1746121327,dfe3d6b133b7cfee1281a49c9159895a,PennController,77,0,interpretation-A-trials,NULL,PennController,79,_Trial_,Start,1746121250533,g_p9,a,NULL
1746121327,dfe3d6b133b7cfee1281a49c9159895a,PennController,77,0,interpretation-A-trials,NULL,Scale,interpretation,Choice,90%,1746121251989,g_p9,a,NULL
1746121327,dfe3d6b133b7cfee1281a49c9159895a,PennController,77,0,interpretation-A-trials,NULL,PennController,79,_Trial_,End,1746121253146,g_p9,a,NULL
1746121327,dfe3d6b133b7cfee1281a49c9159895a,PennController,77,0,interpretation-A-trials,NULL,Scale,interpretation,90%,checked,1746121253146,g_p9,a,Status
1746121327,dfe3d6b133b7cfee1281a49c9159895a,PennController,77,0,interpretation-A-trials,NULL,Scale,interpretation,80%,unchecked,1746121253146,g_p9,a,Status
1746121327,dfe3d6b133b7cfee1281a49c9159895a,PennController,77,0,interpretation-A-trials,NULL,Scale,interpretation,70%,unchecked,1746121253146,g_p9,a,Status
1746121327,dfe3d6b133b7cfee1281a49c9159895a,PennController,77,0,interpretation-A-trials,NULL,Scale,interpretation,60%,unchecked,1746121253146,g_p9,a,Status
1746121327,dfe3d6b133b7cfee1281a49c9159895a,PennController,77,0,interpretation-A-trials,NULL,Scale,interpretation,50%,unchecked,1746121253146,g_p9,a,Status
1746121327,dfe3d6b133b7cfee1281a49c9159895a,PennController,77,0,interpretation-A-trials,NULL,Scale,interpretation,40%,unchecked,1746121253146,g_p9,a,Status
1746121327,dfe3d6b133b7cfee1281a49c9159895a,PennController,77,0,interpretation-A-trials,NULL,Scale,interpretation,30%,unchecked,1746121253146,g_p9,a,Status
1746121327,dfe3d6b133b7cfee1281a49c9159895a,PennController,77,0,interpretation-A-trials,NULL,Scale,interpretation,20%,unchecked,1746121253146,g_p9,a,Status
1746121327,dfe3d6b133b7cfee1281a49c9159895a,PennController,77,0,interpretation-A-trials,NULL,Scale,interpretation,10%,unchecked,1746121253146,g_p9,a,Status
1746121327,dfe3d6b133b7cfee1281a49c9159895a,PennController,78,0,interpretation-A-trials,NULL,PennController,80,_Trial_,Start,1746121253147,g_p4,a,NULL
1746121327,dfe3d6b133b7cfee1281a49c9159895a,PennController,78,0,interpretation-A-trials,NULL,Scale,interpretation,Choice,40%,1746121254609,g_p4,a,NULL
1746121327,dfe3d6b133b7cfee1281a49c9159895a,PennController,78,0,interpretation-A-trials,NULL,PennController,80,_Trial_,End,1746121255051,g_p4,a,NULL
1746121327,dfe3d6b133b7cfee1281a49c9159895a,PennController,78,0,interpretation-A-trials,NULL,Scale,interpretation,90%,unchecked,1746121255051,g_p4,a,Status
1746121327,dfe3d6b133b7cfee1281a49c9159895a,PennController,78,0,interpretation-A-trials,NULL,Scale,interpretation,80%,unchecked,1746121255051,g_p4,a,Status
1746121327,dfe3d6b133b7cfee1281a49c9159895a,PennController,78,0,interpretation-A-trials,NULL,Scale,interpretation,70%,unchecked,1746121255051,g_p4,a,Status
1746121327,dfe3d6b133b7cfee1281a49c9159895a,PennController,78,0,interpretation-A-trials,NULL,Scale,interpretation,60%,unchecked,1746121255051,g_p4,a,Status
1746121327,dfe3d6b133b7cfee1281a49c9159895a,PennController,78,0,interpretation-A-trials,NULL,Scale,interpretation,50%,unchecked,1746121255051,g_p4,a,Status
1746121327,dfe3d6b133b7cfee1281a49c9159895a,PennController,78,0,interpretation-A-trials,NULL,Scale,interpretation,40%,checked,1746121255051,g_p4,a,Status
1746121327,dfe3d6b133b7cfee1281a49c9159895a,PennController,78,0,interpretation-A-trials,NULL,Scale,interpretation,30%,unchecked,1746121255051,g_p4,a,Status
1746121327,dfe3d6b133b7cfee1281a49c9159895a,PennController,78,0,interpretation-A-trials,NULL,Scale,interpretation,20%,unchecked,1746121255051,g_p4,a,Status
1746121327,dfe3d6b133b7cfee1281a49c9159895a,PennController,78,0,interpretation-A-trials,NULL,Scale,interpretation,10%,unchecked,1746121255051,g_p4,a,Status
1746121327,dfe3d6b133b7cfee1281a49c9159895a,PennController,79,0,interpretation-A-trials,NULL,PennController,81,_Trial_,Start,1746121255052,g_p8,a,NULL
1746121327,dfe3d6b133b7cfee1281a49c9159895a,PennController,79,0,interpretation-A-trials,NULL,Scale,interpretation,Choice,80%,1746121256925,g_p8,a,NULL
1746121327,dfe3d6b133b7cfee1281a49c9159895a,PennController,79,0,interpretation-A-trials,NULL,PennController,81,_Trial_,End,1746121257998,g_p8,a,NULL
1746121327,dfe3d6b133b7cfee1281a49c9159895a,PennController,79,0,interpretation-A-trials,NULL,Scale,interpretation,90%,unchecked,1746121257998,g_p8,a,Status
1746121327,dfe3d6b133b7cfee1281a49c9159895a,PennController,79,0,interpretation-A-trials,NULL,Scale,interpretation,80%,checked,1746121257998,g_p8,a,Status
1746121327,dfe3d6b133b7cfee1281a49c9159895a,PennController,79,0,interpretation-A-trials,NULL,Scale,interpretation,70%,unchecked,1746121257998,g_p8,a,Status
1746121327,dfe3d6b133b7cfee1281a49c9159895a,PennController,79,0,interpretation-A-trials,NULL,Scale,interpretation,60%,unchecked,1746121257998,g_p8,a,Status
1746121327,dfe3d6b133b7cfee1281a49c9159895a,PennController,79,0,interpretation-A-trials,NULL,Scale,interpretation,50%,unchecked,1746121257998,g_p8,a,Status
1746121327,dfe3d6b133b7cfee1281a49c9159895a,PennController,79,0,interpretation-A-trials,NULL,Scale,interpretation,40%,unchecked,1746121257998,g_p8,a,Status
1746121327,dfe3d6b133b7cfee1281a49c9159895a,PennController,79,0,interpretation-A-trials,NULL,Scale,interpretation,30%,unchecked,1746121257998,g_p8,a,Status
1746121327,dfe3d6b133b7cfee1281a49c9159895a,PennController,79,0,interpretation-A-trials,NULL,Scale,interpretation,20%,unchecked,1746121257998,g_p8,a,Status
1746121327,dfe3d6b133b7cfee1281a49c9159895a,PennController,79,0,interpretation-A-trials,NULL,Scale,interpretation,10%,unchecked,1746121257998,g_p8,a,Status
1746121327,dfe3d6b133b7cfee1281a49c9159895a,PennController,80,0,interpretation-A-trials,NULL,PennController,82,_Trial_,Start,1746121257999,g_p3,a,NULL
1746121327,dfe3d6b133b7cfee1281a49c9159895a,PennController,80,0,interpretation-A-trials,NULL,Scale,interpretation,Choice,30%,1746121259407,g_p3,a,NULL
1746121327,dfe3d6b133b7cfee1281a49c9159895a,PennController,80,0,interpretation-A-trials,NULL,Scale,interpretation,90%,unchecked,1746121260908,g_p3,a,Status
1746121327,dfe3d6b133b7cfee1281a49c9159895a,PennController,80,0,interpretation-A-trials,NULL,Scale,interpretation,80%,unchecked,1746121260908,g_p3,a,Status
1746121327,dfe3d6b133b7cfee1281a49c9159895a,PennController,80,0,interpretation-A-trials,NULL,Scale,interpretation,70%,unchecked,1746121260908,g_p3,a,Status
1746121327,dfe3d6b133b7cfee1281a49c9159895a,PennController,80,0,interpretation-A-trials,NULL,Scale,interpretation,60%,unchecked,1746121260908,g_p3,a,Status
1746121327,dfe3d6b133b7cfee1281a49c9159895a,PennController,80,0,interpretation-A-trials,NULL,Scale,interpretation,50%,unchecked,1746121260908,g_p3,a,Status
1746121327,dfe3d6b133b7cfee1281a49c9159895a,PennController,80,0,interpretation-A-trials,NULL,Scale,interpretation,40%,unchecked,1746121260908,g_p3,a,Status
1746121327,dfe3d6b133b7cfee1281a49c9159895a,PennController,80,0,interpretation-A-trials,NULL,Scale,interpretation,30%,checked,1746121260908,g_p3,a,Status
1746121327,dfe3d6b133b7cfee1281a49c9159895a,PennController,80,0,interpretation-A-trials,NULL,Scale,interpretation,20%,unchecked,1746121260908,g_p3,a,Status
1746121327,dfe3d6b133b7cfee1281a49c9159895a,PennController,80,0,interpretation-A-trials,NULL,Scale,interpretation,10%,unchecked,1746121260908,g_p3,a,Status
1746121327,dfe3d6b133b7cfee1281a49c9159895a,PennController,80,0,interpretation-A-trials,NULL,PennController,82,_Trial_,End,1746121260909,g_p3,a,NULL
1746121327,dfe3d6b133b7cfee1281a49c9159895a,PennController,81,0,interpretation-A-trials,NULL,PennController,83,_Trial_,Start,1746121260909,g_p1,a,NULL
1746121327,dfe3d6b133b7cfee1281a49c9159895a,PennController,81,0,interpretation-A-trials,NULL,Scale,interpretation,Choice,10%,1746121262032,g_p1,a,NULL
1746121327,dfe3d6b133b7cfee1281a49c9159895a,PennController,81,0,interpretation-A-trials,NULL,Scale,interpretation,80%,unchecked,1746121262570,g_p1,a,Status
1746121327,dfe3d6b133b7cfee1281a49c9159895a,PennController,81,0,interpretation-A-trials,NULL,Scale,interpretation,70%,unchecked,1746121262570,g_p1,a,Status
1746121327,dfe3d6b133b7cfee1281a49c9159895a,PennController,81,0,interpretation-A-trials,NULL,Scale,interpretation,60%,unchecked,1746121262570,g_p1,a,Status
1746121327,dfe3d6b133b7cfee1281a49c9159895a,PennController,81,0,interpretation-A-trials,NULL,Scale,interpretation,50%,unchecked,1746121262570,g_p1,a,Status
1746121327,dfe3d6b133b7cfee1281a49c9159895a,PennController,81,0,interpretation-A-trials,NULL,Scale,interpretation,40%,unchecked,1746121262570,g_p1,a,Status
1746121327,dfe3d6b133b7cfee1281a49c9159895a,PennController,81,0,interpretation-A-trials,NULL,Scale,interpretation,30%,unchecked,1746121262570,g_p1,a,Status
1746121327,dfe3d6b133b7cfee1281a49c9159895a,PennController,81,0,interpretation-A-trials,NULL,Scale,interpretation,20%,unchecked,1746121262570,g_p1,a,Status
1746121327,dfe3d6b133b7cfee1281a49c9159895a,PennController,81,0,interpretation-A-trials,NULL,Scale,interpretation,10%,checked,1746121262570,g_p1,a,Status
1746121327,dfe3d6b133b7cfee1281a49c9159895a,PennController,81,0,interpretation-A-trials,NULL,PennController,83,_Trial_,End,1746121262571,g_p1,a,NULL
1746121327,dfe3d6b133b7cfee1281a49c9159895a,PennController,81,0,interpretation-A-trials,NULL,Scale,interpretation,90%,unchecked,1746121262571,g_p1,a,Status
1746121327,dfe3d6b133b7cfee1281a49c9159895a,PennController,82,0,interpretation-A-trials,NULL,PennController,84,_Trial_,Start,1746121262571,g_p5,a,NULL
1746121327,dfe3d6b133b7cfee1281a49c9159895a,PennController,82,0,interpretation-A-trials,NULL,Scale,interpretation,Choice,50%,1746121264963,g_p5,a,NULL
1746121327,dfe3d6b133b7cfee1281a49c9159895a,PennController,82,0,interpretation-A-trials,NULL,PennController,84,_Trial_,End,1746121265472,g_p5,a,NULL
1746121327,dfe3d6b133b7cfee1281a49c9159895a,PennController,82,0,interpretation-A-trials,NULL,Scale,interpretation,90%,unchecked,1746121265472,g_p5,a,Status
1746121327,dfe3d6b133b7cfee1281a49c9159895a,PennController,82,0,interpretation-A-trials,NULL,Scale,interpretation,80%,unchecked,1746121265472,g_p5,a,Status
1746121327,dfe3d6b133b7cfee1281a49c9159895a,PennController,82,0,interpretation-A-trials,NULL,Scale,interpretation,70%,unchecked,1746121265472,g_p5,a,Status
1746121327,dfe3d6b133b7cfee1281a49c9159895a,PennController,82,0,interpretation-A-trials,NULL,Scale,interpretation,60%,unchecked,1746121265472,g_p5,a,Status
1746121327,dfe3d6b133b7cfee1281a49c9159895a,PennController,82,0,interpretation-A-trials,NULL,Scale,interpretation,50%,checked,1746121265472,g_p5,a,Status
1746121327,dfe3d6b133b7cfee1281a49c9159895a,PennController,82,0,interpretation-A-trials,NULL,Scale,interpretation,40%,unchecked,1746121265472,g_p5,a,Status
1746121327,dfe3d6b133b7cfee1281a49c9159895a,PennController,82,0,interpretation-A-trials,NULL,Scale,interpretation,30%,unchecked,1746121265472,g_p5,a,Status
1746121327,dfe3d6b133b7cfee1281a49c9159895a,PennController,82,0,interpretation-A-trials,NULL,Scale,interpretation,20%,unchecked,1746121265472,g_p5,a,Status
1746121327,dfe3d6b133b7cfee1281a49c9159895a,PennController,82,0,interpretation-A-trials,NULL,Scale,interpretation,10%,unchecked,1746121265472,g_p5,a,Status
1746121327,dfe3d6b133b7cfee1281a49c9159895a,PennController,83,0,interpretation-A-trials,NULL,PennController,85,_Trial_,Start,1746121265473,g_p7,a,NULL
1746121327,dfe3d6b133b7cfee1281a49c9159895a,PennController,83,0,interpretation-A-trials,NULL,Scale,interpretation,Choice,70%,1746121267125,g_p7,a,NULL
1746121327,dfe3d6b133b7cfee1281a49c9159895a,PennController,83,0,interpretation-A-trials,NULL,PennController,85,_Trial_,End,1746121267817,g_p7,a,NULL
1746121327,dfe3d6b133b7cfee1281a49c9159895a,PennController,83,0,interpretation-A-trials,NULL,Scale,interpretation,90%,unchecked,1746121267817,g_p7,a,Status
1746121327,dfe3d6b133b7cfee1281a49c9159895a,PennController,83,0,interpretation-A-trials,NULL,Scale,interpretation,80%,unchecked,1746121267817,g_p7,a,Status
1746121327,dfe3d6b133b7cfee1281a49c9159895a,PennController,83,0,interpretation-A-trials,NULL,Scale,interpretation,70%,checked,1746121267817,g_p7,a,Status
1746121327,dfe3d6b133b7cfee1281a49c9159895a,PennController,83,0,interpretation-A-trials,NULL,Scale,interpretation,60%,unchecked,1746121267817,g_p7,a,Status
1746121327,dfe3d6b133b7cfee1281a49c9159895a,PennController,83,0,interpretation-A-trials,NULL,Scale,interpretation,50%,unchecked,1746121267817,g_p7,a,Status
1746121327,dfe3d6b133b7cfee1281a49c9159895a,PennController,83,0,interpretation-A-trials,NULL,Scale,interpretation,40%,unchecked,1746121267817,g_p7,a,Status
1746121327,dfe3d6b133b7cfee1281a49c9159895a,PennController,83,0,interpretation-A-trials,NULL,Scale,interpretation,30%,unchecked,1746121267817,g_p7,a,Status
1746121327,dfe3d6b133b7cfee1281a49c9159895a,PennController,83,0,interpretation-A-trials,NULL,Scale,interpretation,20%,unchecked,1746121267817,g_p7,a,Status
1746121327,dfe3d6b133b7cfee1281a49c9159895a,PennController,83,0,interpretation-A-trials,NULL,Scale,interpretation,10%,unchecked,1746121267817,g_p7,a,Status
# 13. Comments.
1746121327,dfe3d6b133b7cfee1281a49c9159895a,PennController,84,0,interpretation-B-instruction,NULL,PennController,86,_Trial_,Start,1746121267819,NULL
1746121327,dfe3d6b133b7cfee1281a49c9159895a,PennController,84,0,interpretation-B-instruction,NULL,PennController,86,_Trial_,End,1746121269673,NULL
# 13. id.
# 14. group.
# 15. Comments.
1746121327,dfe3d6b133b7cfee1281a49c9159895a,PennController,85,0,interpretation-B-trials,NULL,PennController,87,_Trial_,Start,1746121269674,e_x4,a,NULL
1746121327,dfe3d6b133b7cfee1281a49c9159895a,PennController,85,0,interpretation-B-trials,NULL,Scale,interpretation,Choice,40%,1746121271496,e_x4,a,NULL
1746121327,dfe3d6b133b7cfee1281a49c9159895a,PennController,85,0,interpretation-B-trials,NULL,PennController,87,_Trial_,End,1746121273271,e_x4,a,NULL
1746121327,dfe3d6b133b7cfee1281a49c9159895a,PennController,85,0,interpretation-B-trials,NULL,Scale,interpretation,90%,unchecked,1746121273271,e_x4,a,Status
1746121327,dfe3d6b133b7cfee1281a49c9159895a,PennController,85,0,interpretation-B-trials,NULL,Scale,interpretation,80%,unchecked,1746121273271,e_x4,a,Status
1746121327,dfe3d6b133b7cfee1281a49c9159895a,PennController,85,0,interpretation-B-trials,NULL,Scale,interpretation,70%,unchecked,1746121273271,e_x4,a,Status
1746121327,dfe3d6b133b7cfee1281a49c9159895a,PennController,85,0,interpretation-B-trials,NULL,Scale,interpretation,60%,unchecked,1746121273271,e_x4,a,Status
1746121327,dfe3d6b133b7cfee1281a49c9159895a,PennController,85,0,interpretation-B-trials,NULL,Scale,interpretation,50%,unchecked,1746121273271,e_x4,a,Status
1746121327,dfe3d6b133b7cfee1281a49c9159895a,PennController,85,0,interpretation-B-trials,NULL,Scale,interpretation,40%,checked,1746121273271,e_x4,a,Status
1746121327,dfe3d6b133b7cfee1281a49c9159895a,PennController,85,0,interpretation-B-trials,NULL,Scale,interpretation,30%,unchecked,1746121273271,e_x4,a,Status
1746121327,dfe3d6b133b7cfee1281a49c9159895a,PennController,85,0,interpretation-B-trials,NULL,Scale,interpretation,20%,unchecked,1746121273271,e_x4,a,Status
1746121327,dfe3d6b133b7cfee1281a49c9159895a,PennController,85,0,interpretation-B-trials,NULL,Scale,interpretation,10%,unchecked,1746121273271,e_x4,a,Status
1746121327,dfe3d6b133b7cfee1281a49c9159895a,PennController,86,0,interpretation-B-trials,NULL,PennController,88,_Trial_,Start,1746121273272,e_x8,a,NULL
1746121327,dfe3d6b133b7cfee1281a49c9159895a,PennController,86,0,interpretation-B-trials,NULL,Scale,interpretation,Choice,80%,1746121274674,e_x8,a,NULL
1746121327,dfe3d6b133b7cfee1281a49c9159895a,PennController,86,0,interpretation-B-trials,NULL,PennController,88,_Trial_,End,1746121275731,e_x8,a,NULL
1746121327,dfe3d6b133b7cfee1281a49c9159895a,PennController,86,0,interpretation-B-trials,NULL,Scale,interpretation,90%,unchecked,1746121275731,e_x8,a,Status
1746121327,dfe3d6b133b7cfee1281a49c9159895a,PennController,86,0,interpretation-B-trials,NULL,Scale,interpretation,80%,checked,1746121275731,e_x8,a,Status
1746121327,dfe3d6b133b7cfee1281a49c9159895a,PennController,86,0,interpretation-B-trials,NULL,Scale,interpretation,70%,unchecked,1746121275731,e_x8,a,Status
1746121327,dfe3d6b133b7cfee1281a49c9159895a,PennController,86,0,interpretation-B-trials,NULL,Scale,interpretation,60%,unchecked,1746121275731,e_x8,a,Status
1746121327,dfe3d6b133b7cfee1281a49c9159895a,PennController,86,0,interpretation-B-trials,NULL,Scale,interpretation,50%,unchecked,1746121275731,e_x8,a,Status
1746121327,dfe3d6b133b7cfee1281a49c9159895a,PennController,86,0,interpretation-B-trials,NULL,Scale,interpretation,40%,unchecked,1746121275731,e_x8,a,Status
1746121327,dfe3d6b133b7cfee1281a49c9159895a,PennController,86,0,interpretation-B-trials,NULL,Scale,interpretation,30%,unchecked,1746121275731,e_x8,a,Status
1746121327,dfe3d6b133b7cfee1281a49c9159895a,PennController,86,0,interpretation-B-trials,NULL,Scale,interpretation,20%,unchecked,1746121275731,e_x8,a,Status
1746121327,dfe3d6b133b7cfee1281a49c9159895a,PennController,86,0,interpretation-B-trials,NULL,Scale,interpretation,10%,unchecked,1746121275731,e_x8,a,Status
1746121327,dfe3d6b133b7cfee1281a49c9159895a,PennController,87,0,interpretation-B-trials,NULL,PennController,89,_Trial_,Start,1746121275732,e_x1,a,NULL
1746121327,dfe3d6b133b7cfee1281a49c9159895a,PennController,87,0,interpretation-B-trials,NULL,Scale,interpretation,Choice,10%,1746121276943,e_x1,a,NULL
1746121327,dfe3d6b133b7cfee1281a49c9159895a,PennController,87,0,interpretation-B-trials,NULL,PennController,89,_Trial_,End,1746121277565,e_x1,a,NULL
1746121327,dfe3d6b133b7cfee1281a49c9159895a,PennController,87,0,interpretation-B-trials,NULL,Scale,interpretation,90%,unchecked,1746121277565,e_x1,a,Status
1746121327,dfe3d6b133b7cfee1281a49c9159895a,PennController,87,0,interpretation-B-trials,NULL,Scale,interpretation,80%,unchecked,1746121277565,e_x1,a,Status
1746121327,dfe3d6b133b7cfee1281a49c9159895a,PennController,87,0,interpretation-B-trials,NULL,Scale,interpretation,70%,unchecked,1746121277565,e_x1,a,Status
1746121327,dfe3d6b133b7cfee1281a49c9159895a,PennController,87,0,interpretation-B-trials,NULL,Scale,interpretation,60%,unchecked,1746121277565,e_x1,a,Status
1746121327,dfe3d6b133b7cfee1281a49c9159895a,PennController,87,0,interpretation-B-trials,NULL,Scale,interpretation,50%,unchecked,1746121277565,e_x1,a,Status
1746121327,dfe3d6b133b7cfee1281a49c9159895a,PennController,87,0,interpretation-B-trials,NULL,Scale,interpretation,40%,unchecked,1746121277565,e_x1,a,Status
1746121327,dfe3d6b133b7cfee1281a49c9159895a,PennController,87,0,interpretation-B-trials,NULL,Scale,interpretation,30%,unchecked,1746121277565,e_x1,a,Status
1746121327,dfe3d6b133b7cfee1281a49c9159895a,PennController,87,0,interpretation-B-trials,NULL,Scale,interpretation,20%,unchecked,1746121277565,e_x1,a,Status
1746121327,dfe3d6b133b7cfee1281a49c9159895a,PennController,87,0,interpretation-B-trials,NULL,Scale,interpretation,10%,checked,1746121277565,e_x1,a,Status
1746121327,dfe3d6b133b7cfee1281a49c9159895a,PennController,88,0,interpretation-B-trials,NULL,PennController,90,_Trial_,Start,1746121277566,e_x7,a,NULL
1746121327,dfe3d6b133b7cfee1281a49c9159895a,PennController,88,0,interpretation-B-trials,NULL,Scale,interpretation,Choice,70%,1746121278880,e_x7,a,NULL
1746121327,dfe3d6b133b7cfee1281a49c9159895a,PennController,88,0,interpretation-B-trials,NULL,Scale,interpretation,90%,unchecked,1746121279361,e_x7,a,Status
1746121327,dfe3d6b133b7cfee1281a49c9159895a,PennController,88,0,interpretation-B-trials,NULL,Scale,interpretation,80%,unchecked,1746121279361,e_x7,a,Status
1746121327,dfe3d6b133b7cfee1281a49c9159895a,PennController,88,0,interpretation-B-trials,NULL,Scale,interpretation,70%,checked,1746121279361,e_x7,a,Status
1746121327,dfe3d6b133b7cfee1281a49c9159895a,PennController,88,0,interpretation-B-trials,NULL,Scale,interpretation,60%,unchecked,1746121279361,e_x7,a,Status
1746121327,dfe3d6b133b7cfee1281a49c9159895a,PennController,88,0,interpretation-B-trials,NULL,Scale,interpretation,50%,unchecked,1746121279361,e_x7,a,Status
1746121327,dfe3d6b133b7cfee1281a49c9159895a,PennController,88,0,interpretation-B-trials,NULL,Scale,interpretation,40%,unchecked,1746121279361,e_x7,a,Status
1746121327,dfe3d6b133b7cfee1281a49c9159895a,PennController,88,0,interpretation-B-trials,NULL,Scale,interpretation,30%,unchecked,1746121279361,e_x7,a,Status
1746121327,dfe3d6b133b7cfee1281a49c9159895a,PennController,88,0,interpretation-B-trials,NULL,Scale,interpretation,20%,unchecked,1746121279361,e_x7,a,Status
1746121327,dfe3d6b133b7cfee1281a49c9159895a,PennController,88,0,interpretation-B-trials,NULL,Scale,interpretation,10%,unchecked,1746121279361,e_x7,a,Status
1746121327,dfe3d6b133b7cfee1281a49c9159895a,PennController,88,0,interpretation-B-trials,NULL,PennController,90,_Trial_,End,1746121279362,e_x7,a,NULL
1746121327,dfe3d6b133b7cfee1281a49c9159895a,PennController,89,0,interpretation-B-trials,NULL,PennController,91,_Trial_,Start,1746121279362,e_x3,a,NULL
1746121327,dfe3d6b133b7cfee1281a49c9159895a,PennController,89,0,interpretation-B-trials,NULL,Scale,interpretation,Choice,30%,1746121280487,e_x3,a,NULL
1746121327,dfe3d6b133b7cfee1281a49c9159895a,PennController,89,0,interpretation-B-trials,NULL,PennController,91,_Trial_,End,1746121280908,e_x3,a,NULL
1746121327,dfe3d6b133b7cfee1281a49c9159895a,PennController,89,0,interpretation-B-trials,NULL,Scale,interpretation,90%,unchecked,1746121280908,e_x3,a,Status
1746121327,dfe3d6b133b7cfee1281a49c9159895a,PennController,89,0,interpretation-B-trials,NULL,Scale,interpretation,80%,unchecked,1746121280908,e_x3,a,Status
1746121327,dfe3d6b133b7cfee1281a49c9159895a,PennController,89,0,interpretation-B-trials,NULL,Scale,interpretation,70%,unchecked,1746121280908,e_x3,a,Status
1746121327,dfe3d6b133b7cfee1281a49c9159895a,PennController,89,0,interpretation-B-trials,NULL,Scale,interpretation,60%,unchecked,1746121280908,e_x3,a,Status
1746121327,dfe3d6b133b7cfee1281a49c9159895a,PennController,89,0,interpretation-B-trials,NULL,Scale,interpretation,50%,unchecked,1746121280908,e_x3,a,Status
1746121327,dfe3d6b133b7cfee1281a49c9159895a,PennController,89,0,interpretation-B-trials,NULL,Scale,interpretation,40%,unchecked,1746121280908,e_x3,a,Status
1746121327,dfe3d6b133b7cfee1281a49c9159895a,PennController,89,0,interpretation-B-trials,NULL,Scale,interpretation,30%,checked,1746121280908,e_x3,a,Status
1746121327,dfe3d6b133b7cfee1281a49c9159895a,PennController,89,0,interpretation-B-trials,NULL,Scale,interpretation,20%,unchecked,1746121280908,e_x3,a,Status
1746121327,dfe3d6b133b7cfee1281a49c9159895a,PennController,89,0,interpretation-B-trials,NULL,Scale,interpretation,10%,unchecked,1746121280908,e_x3,a,Status
1746121327,dfe3d6b133b7cfee1281a49c9159895a,PennController,90,0,interpretation-B-trials,NULL,PennController,92,_Trial_,Start,1746121280908,e_x2,a,NULL
1746121327,dfe3d6b133b7cfee1281a49c9159895a,PennController,90,0,interpretation-B-trials,NULL,Scale,interpretation,Choice,20%,1746121282131,e_x2,a,NULL
1746121327,dfe3d6b133b7cfee1281a49c9159895a,PennController,90,0,interpretation-B-trials,NULL,PennController,92,_Trial_,End,1746121282569,e_x2,a,NULL
1746121327,dfe3d6b133b7cfee1281a49c9159895a,PennController,90,0,interpretation-B-trials,NULL,Scale,interpretation,90%,unchecked,1746121282569,e_x2,a,Status
1746121327,dfe3d6b133b7cfee1281a49c9159895a,PennController,90,0,interpretation-B-trials,NULL,Scale,interpretation,80%,unchecked,1746121282569,e_x2,a,Status
1746121327,dfe3d6b133b7cfee1281a49c9159895a,PennController,90,0,interpretation-B-trials,NULL,Scale,interpretation,70%,unchecked,1746121282569,e_x2,a,Status
1746121327,dfe3d6b133b7cfee1281a49c9159895a,PennController,90,0,interpretation-B-trials,NULL,Scale,interpretation,60%,unchecked,1746121282569,e_x2,a,Status
1746121327,dfe3d6b133b7cfee1281a49c9159895a,PennController,90,0,interpretation-B-trials,NULL,Scale,interpretation,50%,unchecked,1746121282569,e_x2,a,Status
1746121327,dfe3d6b133b7cfee1281a49c9159895a,PennController,90,0,interpretation-B-trials,NULL,Scale,interpretation,40%,unchecked,1746121282569,e_x2,a,Status
1746121327,dfe3d6b133b7cfee1281a49c9159895a,PennController,90,0,interpretation-B-trials,NULL,Scale,interpretation,30%,unchecked,1746121282569,e_x2,a,Status
1746121327,dfe3d6b133b7cfee1281a49c9159895a,PennController,90,0,interpretation-B-trials,NULL,Scale,interpretation,20%,checked,1746121282569,e_x2,a,Status
1746121327,dfe3d6b133b7cfee1281a49c9159895a,PennController,90,0,interpretation-B-trials,NULL,Scale,interpretation,10%,unchecked,1746121282569,e_x2,a,Status
1746121327,dfe3d6b133b7cfee1281a49c9159895a,PennController,91,0,interpretation-B-trials,NULL,PennController,93,_Trial_,Start,1746121282570,e_x6,a,NULL
1746121327,dfe3d6b133b7cfee1281a49c9159895a,PennController,91,0,interpretation-B-trials,NULL,Scale,interpretation,Choice,60%,1746121283694,e_x6,a,NULL
1746121327,dfe3d6b133b7cfee1281a49c9159895a,PennController,91,0,interpretation-B-trials,NULL,PennController,93,_Trial_,End,1746121284131,e_x6,a,NULL
1746121327,dfe3d6b133b7cfee1281a49c9159895a,PennController,91,0,interpretation-B-trials,NULL,Scale,interpretation,90%,unchecked,1746121284131,e_x6,a,Status
1746121327,dfe3d6b133b7cfee1281a49c9159895a,PennController,91,0,interpretation-B-trials,NULL,Scale,interpretation,80%,unchecked,1746121284131,e_x6,a,Status
1746121327,dfe3d6b133b7cfee1281a49c9159895a,PennController,91,0,interpretation-B-trials,NULL,Scale,interpretation,70%,unchecked,1746121284131,e_x6,a,Status
1746121327,dfe3d6b133b7cfee1281a49c9159895a,PennController,91,0,interpretation-B-trials,NULL,Scale,interpretation,60%,checked,1746121284131,e_x6,a,Status
1746121327,dfe3d6b133b7cfee1281a49c9159895a,PennController,91,0,interpretation-B-trials,NULL,Scale,interpretation,50%,unchecked,1746121284131,e_x6,a,Status
1746121327,dfe3d6b133b7cfee1281a49c9159895a,PennController,91,0,interpretation-B-trials,NULL,Scale,interpretation,40%,unchecked,1746121284131,e_x6,a,Status
1746121327,dfe3d6b133b7cfee1281a49c9159895a,PennController,91,0,interpretation-B-trials,NULL,Scale,interpretation,30%,unchecked,1746121284131,e_x6,a,Status
1746121327,dfe3d6b133b7cfee1281a49c9159895a,PennController,91,0,interpretation-B-trials,NULL,Scale,interpretation,20%,unchecked,1746121284131,e_x6,a,Status
1746121327,dfe3d6b133b7cfee1281a49c9159895a,PennController,91,0,interpretation-B-trials,NULL,Scale,interpretation,10%,unchecked,1746121284131,e_x6,a,Status
1746121327,dfe3d6b133b7cfee1281a49c9159895a,PennController,92,0,interpretation-B-trials,NULL,PennController,94,_Trial_,Start,1746121284132,e_x9,a,NULL
1746121327,dfe3d6b133b7cfee1281a49c9159895a,PennController,92,0,interpretation-B-trials,NULL,Scale,interpretation,Choice,90%,1746121286469,e_x9,a,NULL
1746121327,dfe3d6b133b7cfee1281a49c9159895a,PennController,92,0,interpretation-B-trials,NULL,Scale,interpretation,90%,checked,1746121287085,e_x9,a,Status
1746121327,dfe3d6b133b7cfee1281a49c9159895a,PennController,92,0,interpretation-B-trials,NULL,Scale,interpretation,80%,unchecked,1746121287085,e_x9,a,Status
1746121327,dfe3d6b133b7cfee1281a49c9159895a,PennController,92,0,interpretation-B-trials,NULL,Scale,interpretation,70%,unchecked,1746121287085,e_x9,a,Status
1746121327,dfe3d6b133b7cfee1281a49c9159895a,PennController,92,0,interpretation-B-trials,NULL,Scale,interpretation,60%,unchecked,1746121287085,e_x9,a,Status
1746121327,dfe3d6b133b7cfee1281a49c9159895a,PennController,92,0,interpretation-B-trials,NULL,Scale,interpretation,50%,unchecked,1746121287085,e_x9,a,Status
1746121327,dfe3d6b133b7cfee1281a49c9159895a,PennController,92,0,interpretation-B-trials,NULL,Scale,interpretation,40%,unchecked,1746121287085,e_x9,a,Status
1746121327,dfe3d6b133b7cfee1281a49c9159895a,PennController,92,0,interpretation-B-trials,NULL,Scale,interpretation,30%,unchecked,1746121287085,e_x9,a,Status
1746121327,dfe3d6b133b7cfee1281a49c9159895a,PennController,92,0,interpretation-B-trials,NULL,Scale,interpretation,20%,unchecked,1746121287085,e_x9,a,Status
1746121327,dfe3d6b133b7cfee1281a49c9159895a,PennController,92,0,interpretation-B-trials,NULL,Scale,interpretation,10%,unchecked,1746121287085,e_x9,a,Status
1746121327,dfe3d6b133b7cfee1281a49c9159895a,PennController,92,0,interpretation-B-trials,NULL,PennController,94,_Trial_,End,1746121287086,e_x9,a,NULL
1746121327,dfe3d6b133b7cfee1281a49c9159895a,PennController,93,0,interpretation-B-trials,NULL,PennController,95,_Trial_,Start,1746121287086,e_x5,a,NULL
1746121327,dfe3d6b133b7cfee1281a49c9159895a,PennController,93,0,interpretation-B-trials,NULL,Scale,interpretation,Choice,50%,1746121288191,e_x5,a,NULL
1746121327,dfe3d6b133b7cfee1281a49c9159895a,PennController,93,0,interpretation-B-trials,NULL,PennController,95,_Trial_,End,1746121288564,e_x5,a,NULL
1746121327,dfe3d6b133b7cfee1281a49c9159895a,PennController,93,0,interpretation-B-trials,NULL,Scale,interpretation,90%,unchecked,1746121288564,e_x5,a,Status
1746121327,dfe3d6b133b7cfee1281a49c9159895a,PennController,93,0,interpretation-B-trials,NULL,Scale,interpretation,80%,unchecked,1746121288564,e_x5,a,Status
1746121327,dfe3d6b133b7cfee1281a49c9159895a,PennController,93,0,interpretation-B-trials,NULL,Scale,interpretation,70%,unchecked,1746121288564,e_x5,a,Status
1746121327,dfe3d6b133b7cfee1281a49c9159895a,PennController,93,0,interpretation-B-trials,NULL,Scale,interpretation,60%,unchecked,1746121288564,e_x5,a,Status
1746121327,dfe3d6b133b7cfee1281a49c9159895a,PennController,93,0,interpretation-B-trials,NULL,Scale,interpretation,50%,checked,1746121288564,e_x5,a,Status
1746121327,dfe3d6b133b7cfee1281a49c9159895a,PennController,93,0,interpretation-B-trials,NULL,Scale,interpretation,40%,unchecked,1746121288564,e_x5,a,Status
1746121327,dfe3d6b133b7cfee1281a49c9159895a,PennController,93,0,interpretation-B-trials,NULL,Scale,interpretation,30%,unchecked,1746121288564,e_x5,a,Status
1746121327,dfe3d6b133b7cfee1281a49c9159895a,PennController,93,0,interpretation-B-trials,NULL,Scale,interpretation,20%,unchecked,1746121288564,e_x5,a,Status
1746121327,dfe3d6b133b7cfee1281a49c9159895a,PennController,93,0,interpretation-B-trials,NULL,Scale,interpretation,10%,unchecked,1746121288564,e_x5,a,Status
# 13. Comments.
1746121327,dfe3d6b133b7cfee1281a49c9159895a,PennController,94,0,break-3,NULL,PennController,19,_Trial_,Start,1746121288565,NULL
1746121327,dfe3d6b133b7cfee1281a49c9159895a,PennController,94,0,break-3,NULL,PennController,19,_Trial_,End,1746121289638,NULL
1746121327,dfe3d6b133b7cfee1281a49c9159895a,PennController,95,0,demographics,NULL,PennController,20,_Trial_,Start,1746121289639,NULL
1746121327,dfe3d6b133b7cfee1281a49c9159895a,PennController,95,0,demographics,NULL,PennController,20,_Trial_,End,1746121327646,NULL
1746121327,dfe3d6b133b7cfee1281a49c9159895a,PennController,95,0,demographics,NULL,Html,demographics_survey,social_eng,90to100,1746121327646,radio button
1746121327,dfe3d6b133b7cfee1281a49c9159895a,PennController,95,0,demographics,NULL,Html,demographics_survey,work_eng,90to100,1746121327646,radio button
1746121327,dfe3d6b133b7cfee1281a49c9159895a,PennController,95,0,demographics,NULL,Html,demographics_survey,home_eng,90to100,1746121327646,radio button
1746121327,dfe3d6b133b7cfee1281a49c9159895a,PennController,95,0,demographics,NULL,Html,demographics_survey,learn_eng,Less than 5,1746121327646,radio button
1746121327,dfe3d6b133b7cfee1281a49c9159895a,PennController,95,0,demographics,NULL,Html,demographics_survey,first_eng,Yes,1746121327646,radio button
1746121327,dfe3d6b133b7cfee1281a49c9159895a,PennController,95,0,demographics,NULL,Html,demographics_survey,native_eng,Yes,1746121327646,radio button
1746121327,dfe3d6b133b7cfee1281a49c9159895a,PennController,95,0,demographics,NULL,Html,demographics_survey,Y,2,1746121327646,radio button
1746121327,dfe3d6b133b7cfee1281a49c9159895a,PennController,95,0,demographics,NULL,Html,demographics_survey,X,4,1746121327646,radio button
1746121327,dfe3d6b133b7cfee1281a49c9159895a,PennController,95,0,demographics,NULL,Html,demographics_survey,in_us,Yes,1746121327646,radio button
1746121327,dfe3d6b133b7cfee1281a49c9159895a,PennController,95,0,demographics,NULL,Html,demographics_survey,gender,Male,1746121327646,radio button
1746121327,dfe3d6b133b7cfee1281a49c9159895a,PennController,95,0,demographics,NULL,Html,demographics_survey,speak,26,1746121327646,text input
1746121327,dfe3d6b133b7cfee1281a49c9159895a,PennController,95,0,demographics,NULL,Html,demographics_survey,first_lang,,1746121327646,text input
1746121327,dfe3d6b133b7cfee1281a49c9159895a,PennController,95,0,demographics,NULL,Html,demographics_survey,us_state,NY,1746121327646,text input
1746121327,dfe3d6b133b7cfee1281a49c9159895a,PennController,95,0,demographics,NULL,Html,demographics_survey,years_us,20,1746121327646,text input
1746121327,dfe3d6b133b7cfee1281a49c9159895a,PennController,95,0,demographics,NULL,Html,demographics_survey,gender,26,1746121327646,text input
#
# Results on Thu, 01 May 2025 17:56:20 GMT
# USER AGENT: Mozilla/5.0 (Windows NT 10.0; Win64; x64; rv:136.0) Gecko/20100101 Firefox/136.0
# Design number was non-random = 0
#
# Columns below this comment are as follows:
# 1. Results reception time.
# 2. MD5 hash of participant's IP address.
# 3. Controller name.
# 4. Order number of item.
# 5. Inner element number.
# 6. Label.
# 7. Latin Square Group.
# 8. PennElementType.
# 9. PennElementName.
# 10. Parameter.
# 11. Value.
# 12. EventTime.
# 13. Comments.
1746122180,5025dea2536540e46bff95ed53dd6987,PennController,1,0,consent,NULL,PennController,0,_Trial_,Start,1746120810511,NULL
1746122180,5025dea2536540e46bff95ed53dd6987,PennController,1,0,consent,NULL,Html,consent_form,prolific_id,611341c34be95409850e4341,1746120835627,text input
1746122180,5025dea2536540e46bff95ed53dd6987,PennController,1,0,consent,NULL,Html,consent_form,consent,checked,1746120835627,checkbox
1746122180,5025dea2536540e46bff95ed53dd6987,PennController,1,0,consent,NULL,PennController,0,_Trial_,End,1746120835628,NULL
1746122180,5025dea2536540e46bff95ed53dd6987,PennController,2,0,instruction-start,NULL,PennController,1,_Trial_,Start,1746120835642,NULL
1746122180,5025dea2536540e46bff95ed53dd6987,PennController,2,0,instruction-start,NULL,PennController,1,_Trial_,End,1746120864923,NULL
1746122180,5025dea2536540e46bff95ed53dd6987,PennController,3,0,instruction-gumball,NULL,PennController,2,_Trial_,Start,1746120864927,NULL
1746122180,5025dea2536540e46bff95ed53dd6987,PennController,3,0,instruction-gumball,NULL,PennController,2,_Trial_,End,1746120896774,NULL
1746122180,5025dea2536540e46bff95ed53dd6987,PennController,4,0,instruction-A-1,NULL,PennController,3,_Trial_,Start,1746120896788,NULL
1746122180,5025dea2536540e46bff95ed53dd6987,PennController,4,0,instruction-A-1,NULL,PennController,3,_Trial_,End,1746120902931,NULL
1746122180,5025dea2536540e46bff95ed53dd6987,PennController,5,0,check-A-1,NULL,PennController,4,_Trial_,Start,1746120902935,NULL
1746122180,5025dea2536540e46bff95ed53dd6987,PennController,5,0,check-A-1,NULL,Button,go-back,Click,NA,Never,NULL
1746122180,5025dea2536540e46bff95ed53dd6987,PennController,5,0,check-A-1,NULL,Button,proceed,Click,Click,1746120908561,NULL
1746122180,5025dea2536540e46bff95ed53dd6987,PennController,5,0,check-A-1,NULL,PennController,4,_Trial_,End,1746120908564,NULL
1746122180,5025dea2536540e46bff95ed53dd6987,PennController,6,0,instruction-slider-1,NULL,PennController,5,_Trial_,Start,1746120908568,NULL
1746122180,5025dea2536540e46bff95ed53dd6987,PennController,6,0,instruction-slider-1,NULL,PennController,5,_Trial_,End,1746120935012,NULL
1746122180,5025dea2536540e46bff95ed53dd6987,PennController,7,0,check-slider-1,NULL,PennController,6,_Trial_,Start,1746120935015,NULL
1746122180,5025dea2536540e46bff95ed53dd6987,PennController,7,0,check-slider-1,NULL,Button,proceed,Click,Click,1746120945048,NULL
1746122180,5025dea2536540e46bff95ed53dd6987,PennController,7,0,check-slider-1,NULL,PennController,6,_Trial_,End,1746120945051,NULL
1746122180,5025dea2536540e46bff95ed53dd6987,PennController,8,0,practice-gumball-start,NULL,PennController,7,_Trial_,Start,1746120945054,NULL
1746122180,5025dea2536540e46bff95ed53dd6987,PennController,8,0,practice-gumball-start,NULL,PennController,7,_Trial_,End,1746120948002,NULL
# 13. id.
# 14. group.
# 15. Comments.
1746122180,5025dea2536540e46bff95ed53dd6987,PennController,9,0,practice-gumball,NULL,PennController,22,_Trial_,Start,1746120948005,g_p1,a,NULL
1746122180,5025dea2536540e46bff95ed53dd6987,PennController,9,0,practice-gumball,NULL,Scale,slider-1,Default,0,1746120948021,g_p1,a,slider
1746122180,5025dea2536540e46bff95ed53dd6987,PennController,9,0,practice-gumball,NULL,Scale,slider-2,Choice,100,1746120970953,g_p1,a,1336
1746122180,5025dea2536540e46bff95ed53dd6987,PennController,9,0,practice-gumball,NULL,Scale,slider-3,Choice,12,1746120990185,g_p1,a,4654
1746122180,5025dea2536540e46bff95ed53dd6987,PennController,9,0,practice-gumball,NULL,PennController,22,_Trial_,End,1746120993653,g_p1,a,NULL
1746122180,5025dea2536540e46bff95ed53dd6987,PennController,10,0,practice-gumball,NULL,PennController,23,_Trial_,Start,1746120993658,g_p9,a,NULL
1746122180,5025dea2536540e46bff95ed53dd6987,PennController,10,0,practice-gumball,NULL,Scale,slider-3,Default,0,1746120993667,g_p9,a,slider
1746122180,5025dea2536540e46bff95ed53dd6987,PennController,10,0,practice-gumball,NULL,Scale,slider-1,Choice,100,1746121003177,g_p9,a,173
1746122180,5025dea2536540e46bff95ed53dd6987,PennController,10,0,practice-gumball,NULL,Scale,slider-2,Choice,61,1746121005920,g_p9,a,203
1746122180,5025dea2536540e46bff95ed53dd6987,PennController,10,0,practice-gumball,NULL,PennController,23,_Trial_,End,1746121019445,g_p9,a,NULL
1746122180,5025dea2536540e46bff95ed53dd6987,PennController,11,0,practice-gumball,NULL,PennController,24,_Trial_,Start,1746121019448,g_p9,a,NULL
1746122180,5025dea2536540e46bff95ed53dd6987,PennController,11,0,practice-gumball,NULL,Selector,selection,Selection,correct,1746121023634,g_p9,a,incorrect;correct
1746122180,5025dea2536540e46bff95ed53dd6987,PennController,11,0,practice-gumball,NULL,PennController,24,_Trial_,End,1746121024691,g_p9,a,NULL
# 13. Comments.
1746122180,5025dea2536540e46bff95ed53dd6987,PennController,12,0,practice-gumball-end,NULL,PennController,8,_Trial_,Start,1746121024694,NULL
1746122180,5025dea2536540e46bff95ed53dd6987,PennController,12,0,practice-gumball-end,NULL,PennController,8,_Trial_,End,1746121032809,NULL
# 13. id.
# 14. group.
# 15. Comments.
1746122180,5025dea2536540e46bff95ed53dd6987,PennController,13,0,trials-gumball,NULL,PennController,25,_Trial_,Start,1746121032810,g_p8,a,NULL
1746122180,5025dea2536540e46bff95ed53dd6987,PennController,13,0,trials-gumball,NULL,Scale,slider-3,Default,0,1746121032813,g_p8,a,slider
1746122180,5025dea2536540e46bff95ed53dd6987,PennController,13,0,trials-gumball,NULL,Scale,slider-2,Choice,100,1746121049417,g_p8,a,577
1746122180,5025dea2536540e46bff95ed53dd6987,PennController,13,0,trials-gumball,NULL,Scale,slider-1,Choice,100,1746121071776,g_p8,a,418
1746122180,5025dea2536540e46bff95ed53dd6987,PennController,13,0,trials-gumball,NULL,PennController,25,_Trial_,End,1746121075485,g_p8,a,NULL
1746122180,5025dea2536540e46bff95ed53dd6987,PennController,14,0,trials-gumball,NULL,PennController,26,_Trial_,Start,1746121075488,g_p2,a,NULL
1746122180,5025dea2536540e46bff95ed53dd6987,PennController,14,0,trials-gumball,NULL,Scale,slider-1,Default,0,1746121075495,g_p2,a,slider
1746122180,5025dea2536540e46bff95ed53dd6987,PennController,14,0,trials-gumball,NULL,Scale,slider-3,Default,0,1746121075497,g_p2,a,slider
1746122180,5025dea2536540e46bff95ed53dd6987,PennController,14,0,trials-gumball,NULL,Scale,slider-2,Choice,100,1746121084850,g_p2,a,567
1746122180,5025dea2536540e46bff95ed53dd6987,PennController,14,0,trials-gumball,NULL,PennController,26,_Trial_,End,1746121095989,g_p2,a,NULL
1746122180,5025dea2536540e46bff95ed53dd6987,PennController,15,0,trials-gumball,NULL,PennController,27,_Trial_,Start,1746121095991,g_p6,a,NULL
1746122180,5025dea2536540e46bff95ed53dd6987,PennController,15,0,trials-gumball,NULL,Scale,slider-3,Default,0,1746121095999,g_p6,a,slider
1746122180,5025dea2536540e46bff95ed53dd6987,PennController,15,0,trials-gumball,NULL,Scale,slider-2,Choice,100,1746121106578,g_p6,a,508
1746122180,5025dea2536540e46bff95ed53dd6987,PennController,15,0,trials-gumball,NULL,Scale,slider-1,Choice,0,1746121128521,g_p6,a,991
1746122180,5025dea2536540e46bff95ed53dd6987,PennController,15,0,trials-gumball,NULL,PennController,27,_Trial_,End,1746121130373,g_p6,a,NULL
1746122180,5025dea2536540e46bff95ed53dd6987,PennController,16,0,trials-gumball,NULL,PennController,28,_Trial_,Start,1746121130375,g_p5,a,NULL
1746122180,5025dea2536540e46bff95ed53dd6987,PennController,16,0,trials-gumball,NULL,Scale,slider-1,Default,0,1746121130380,g_p5,a,slider
1746122180,5025dea2536540e46bff95ed53dd6987,PennController,16,0,trials-gumball,NULL,Scale,slider-3,Default,0,1746121130382,g_p5,a,slider
1746122180,5025dea2536540e46bff95ed53dd6987,PennController,16,0,trials-gumball,NULL,Scale,slider-2,Choice,100,1746121142368,g_p5,a,500
1746122180,5025dea2536540e46bff95ed53dd6987,PennController,16,0,trials-gumball,NULL,PennController,28,_Trial_,End,1746121149845,g_p5,a,NULL
1746122180,5025dea2536540e46bff95ed53dd6987,PennController,17,0,trials-gumball,NULL,PennController,29,_Trial_,Start,1746121149847,g_p7,a,NULL
1746122180,5025dea2536540e46bff95ed53dd6987,PennController,17,0,trials-gumball,NULL,Scale,slider-3,Default,0,1746121149855,g_p7,a,slider
1746122180,5025dea2536540e46bff95ed53dd6987,PennController,17,0,trials-gumball,NULL,Scale,slider-2,Choice,100,1746121158034,g_p7,a,466
1746122180,5025dea2536540e46bff95ed53dd6987,PennController,17,0,trials-gumball,NULL,Scale,slider-1,Choice,78,1746121166273,g_p7,a,135
1746122180,5025dea2536540e46bff95ed53dd6987,PennController,17,0,trials-gumball,NULL,PennController,29,_Trial_,End,1746121168069,g_p7,a,NULL
1746122180,5025dea2536540e46bff95ed53dd6987,PennController,18,0,trials-gumball,NULL,PennController,30,_Trial_,Start,1746121168071,g_p4,a,NULL
1746122180,5025dea2536540e46bff95ed53dd6987,PennController,18,0,trials-gumball,NULL,Scale,slider-1,Default,0,1746121168077,g_p4,a,slider
1746122180,5025dea2536540e46bff95ed53dd6987,PennController,18,0,trials-gumball,NULL,Scale,slider-3,Default,0,1746121168078,g_p4,a,slider
1746122180,5025dea2536540e46bff95ed53dd6987,PennController,18,0,trials-gumball,NULL,Scale,slider-2,Choice,100,1746121188276,g_p4,a,760
1746122180,5025dea2536540e46bff95ed53dd6987,PennController,18,0,trials-gumball,NULL,PennController,30,_Trial_,End,1746121197075,g_p4,a,NULL
1746122180,5025dea2536540e46bff95ed53dd6987,PennController,19,0,trials-gumball,NULL,PennController,31,_Trial_,Start,1746121197078,g_p1,a,NULL
1746122180,5025dea2536540e46bff95ed53dd6987,PennController,19,0,trials-gumball,NULL,Scale,slider-1,Default,0,1746121197083,g_p1,a,slider
1746122180,5025dea2536540e46bff95ed53dd6987,PennController,19,0,trials-gumball,NULL,Scale,slider-3,Default,0,1746121197084,g_p1,a,slider
1746122180,5025dea2536540e46bff95ed53dd6987,PennController,19,0,trials-gumball,NULL,Scale,slider-2,Choice,100,1746121205001,g_p1,a,880
1746122180,5025dea2536540e46bff95ed53dd6987,PennController,19,0,trials-gumball,NULL,PennController,31,_Trial_,End,1746121213348,g_p1,a,NULL
1746122180,5025dea2536540e46bff95ed53dd6987,PennController,20,0,trials-gumball,NULL,PennController,32,_Trial_,Start,1746121213351,g_p1,a,NULL
1746122180,5025dea2536540e46bff95ed53dd6987,PennController,20,0,trials-gumball,NULL,Selector,selection,Selection,correct,1746121217176,g_p1,a,incorrect;correct
1746122180,5025dea2536540e46bff95ed53dd6987,PennController,20,0,trials-gumball,NULL,PennController,32,_Trial_,End,1746121218084,g_p1,a,NULL
1746122180,5025dea2536540e46bff95ed53dd6987,PennController,21,0,trials-gumball,NULL,PennController,33,_Trial_,Start,1746121218087,g_p3,a,NULL
1746122180,5025dea2536540e46bff95ed53dd6987,PennController,21,0,trials-gumball,NULL,Scale,slider-1,Default,0,1746121218093,g_p3,a,slider
1746122180,5025dea2536540e46bff95ed53dd6987,PennController,21,0,trials-gumball,NULL,Scale,slider-3,Default,0,1746121218096,g_p3,a,slider
1746122180,5025dea2536540e46bff95ed53dd6987,PennController,21,0,trials-gumball,NULL,Scale,slider-2,Choice,100,1746121234632,g_p3,a,204
1746122180,5025dea2536540e46bff95ed53dd6987,PennController,21,0,trials-gumball,NULL,PennController,33,_Trial_,End,1746121241203,g_p3,a,NULL
1746122180,5025dea2536540e46bff95ed53dd6987,PennController,22,0,trials-gumball,NULL,PennController,34,_Trial_,Start,1746121241206,g_p3,a,NULL
1746122180,5025dea2536540e46bff95ed53dd6987,PennController,22,0,trials-gumball,NULL,Selector,selection,Selection,correct,1746121244320,g_p3,a,incorrect;correct
1746122180,5025dea2536540e46bff95ed53dd6987,PennController,22,0,trials-gumball,NULL,PennController,34,_Trial_,End,1746121245154,g_p3,a,NULL
1746122180,5025dea2536540e46bff95ed53dd6987,PennController,23,0,trials-gumball,NULL,PennController,35,_Trial_,Start,1746121245156,g_p9,a,NULL
1746122180,5025dea2536540e46bff95ed53dd6987,PennController,23,0,trials-gumball,NULL,Scale,slider-3,Default,0,1746121245165,g_p9,a,slider
1746122180,5025dea2536540e46bff95ed53dd6987,PennController,23,0,trials-gumball,NULL,Scale,slider-1,Choice,100,1746121262288,g_p9,a,140
1746122180,5025dea2536540e46bff95ed53dd6987,PennController,23,0,trials-gumball,NULL,Scale,slider-2,Choice,59,1746121266217,g_p9,a,956
1746122180,5025dea2536540e46bff95ed53dd6987,PennController,23,0,trials-gumball,NULL,PennController,35,_Trial_,End,1746121269419,g_p9,a,NULL
1746122180,5025dea2536540e46bff95ed53dd6987,PennController,24,0,trials-gumball,NULL,PennController,36,_Trial_,Start,1746121269422,g_p1,a,NULL
1746122180,5025dea2536540e46bff95ed53dd6987,PennController,24,0,trials-gumball,NULL,Scale,slider-1,Default,0,1746121269428,g_p1,a,slider
1746122180,5025dea2536540e46bff95ed53dd6987,PennController,24,0,trials-gumball,NULL,Scale,slider-3,Default,0,1746121269431,g_p1,a,slider
1746122180,5025dea2536540e46bff95ed53dd6987,PennController,24,0,trials-gumball,NULL,Scale,slider-2,Choice,100,1746121278504,g_p1,a,588
1746122180,5025dea2536540e46bff95ed53dd6987,PennController,24,0,trials-gumball,NULL,PennController,36,_Trial_,End,1746121284901,g_p1,a,NULL
1746122180,5025dea2536540e46bff95ed53dd6987,PennController,25,0,trials-gumball,NULL,PennController,37,_Trial_,Start,1746121284903,g_p7,a,NULL
1746122180,5025dea2536540e46bff95ed53dd6987,PennController,25,0,trials-gumball,NULL,Scale,slider-3,Default,0,1746121284909,g_p7,a,slider
1746122180,5025dea2536540e46bff95ed53dd6987,PennController,25,0,trials-gumball,NULL,Scale,slider-2,Choice,100,1746121300775,g_p7,a,183
1746122180,5025dea2536540e46bff95ed53dd6987,PennController,25,0,trials-gumball,NULL,Scale,slider-1,Choice,81,1746121306184,g_p7,a,125
1746122180,5025dea2536540e46bff95ed53dd6987,PennController,25,0,trials-gumball,NULL,PennController,37,_Trial_,End,1746121310617,g_p7,a,NULL
1746122180,5025dea2536540e46bff95ed53dd6987,PennController,26,0,trials-gumball,NULL,PennController,38,_Trial_,Start,1746121310619,g_p7,a,NULL
1746122180,5025dea2536540e46bff95ed53dd6987,PennController,26,0,trials-gumball,NULL,Selector,selection,Selection,correct,1746121312311,g_p7,a,correct;incorrect
1746122180,5025dea2536540e46bff95ed53dd6987,PennController,26,0,trials-gumball,NULL,PennController,38,_Trial_,End,1746121313379,g_p7,a,NULL
1746122180,5025dea2536540e46bff95ed53dd6987,PennController,27,0,trials-gumball,NULL,PennController,39,_Trial_,Start,1746121313380,g_p4,a,NULL
1746122180,5025dea2536540e46bff95ed53dd6987,PennController,27,0,trials-gumball,NULL,Scale,slider-1,Default,0,1746121313387,g_p4,a,slider
1746122180,5025dea2536540e46bff95ed53dd6987,PennController,27,0,trials-gumball,NULL,Scale,slider-3,Default,0,1746121313389,g_p4,a,slider
1746122180,5025dea2536540e46bff95ed53dd6987,PennController,27,0,trials-gumball,NULL,Scale,slider-2,Choice,100,1746121323929,g_p4,a,157
1746122180,5025dea2536540e46bff95ed53dd6987,PennController,27,0,trials-gumball,NULL,PennController,39,_Trial_,End,1746121331338,g_p4,a,NULL
1746122180,5025dea2536540e46bff95ed53dd6987,PennController,28,0,trials-gumball,NULL,PennController,40,_Trial_,Start,1746121331341,g_p4,a,NULL
1746122180,5025dea2536540e46bff95ed53dd6987,PennController,28,0,trials-gumball,NULL,Selector,selection,Selection,correct,1746121332793,g_p4,a,incorrect;correct
1746122180,5025dea2536540e46bff95ed53dd6987,PennController,28,0,trials-gumball,NULL,PennController,40,_Trial_,End,1746121333578,g_p4,a,NULL
1746122180,5025dea2536540e46bff95ed53dd6987,PennController,29,0,trials-gumball,NULL,PennController,41,_Trial_,Start,1746121333580,g_p6,a,NULL
1746122180,5025dea2536540e46bff95ed53dd6987,PennController,29,0,trials-gumball,NULL,Scale,slider-3,Default,0,1746121333589,g_p6,a,slider
1746122180,5025dea2536540e46bff95ed53dd6987,PennController,29,0,trials-gumball,NULL,Scale,slider-1,Choice,65,1746121344621,g_p6,a,97
1746122180,5025dea2536540e46bff95ed53dd6987,PennController,29,0,trials-gumball,NULL,Scale,slider-2,Choice,100,1746121346393,g_p6,a,173
1746122180,5025dea2536540e46bff95ed53dd6987,PennController,29,0,trials-gumball,NULL,PennController,41,_Trial_,End,1746121351237,g_p6,a,NULL
1746122180,5025dea2536540e46bff95ed53dd6987,PennController,30,0,trials-gumball,NULL,PennController,42,_Trial_,Start,1746121351239,g_p5,a,NULL
1746122180,5025dea2536540e46bff95ed53dd6987,PennController,30,0,trials-gumball,NULL,Scale,slider-1,Default,0,1746121351244,g_p5,a,slider
1746122180,5025dea2536540e46bff95ed53dd6987,PennController,30,0,trials-gumball,NULL,Scale,slider-3,Default,0,1746121351245,g_p5,a,slider
1746122180,5025dea2536540e46bff95ed53dd6987,PennController,30,0,trials-gumball,NULL,Scale,slider-2,Choice,100,1746121359108,g_p5,a,729
1746122180,5025dea2536540e46bff95ed53dd6987,PennController,30,0,trials-gumball,NULL,PennController,42,_Trial_,End,1746121363670,g_p5,a,NULL
1746122180,5025dea2536540e46bff95ed53dd6987,PennController,31,0,trials-gumball,NULL,PennController,43,_Trial_,Start,1746121363673,g_p5,a,NULL
1746122180,5025dea2536540e46bff95ed53dd6987,PennController,31,0,trials-gumball,NULL,Selector,selection,Selection,correct,1746121365322,g_p5,a,correct;incorrect
1746122180,5025dea2536540e46bff95ed53dd6987,PennController,31,0,trials-gumball,NULL,PennController,43,_Trial_,End,1746121366057,g_p5,a,NULL
1746122180,5025dea2536540e46bff95ed53dd6987,PennController,32,0,trials-gumball,NULL,PennController,44,_Trial_,Start,1746121366058,g_p9,a,NULL
1746122180,5025dea2536540e46bff95ed53dd6987,PennController,32,0,trials-gumball,NULL,Scale,slider-3,Default,0,1746121366060,g_p9,a,slider
1746122180,5025dea2536540e46bff95ed53dd6987,PennController,32,0,trials-gumball,NULL,Scale,slider-1,Choice,100,1746121374753,g_p9,a,157
1746122180,5025dea2536540e46bff95ed53dd6987,PennController,32,0,trials-gumball,NULL,Scale,slider-2,Choice,81,1746121375993,g_p9,a,149
1746122180,5025dea2536540e46bff95ed53dd6987,PennController,32,0,trials-gumball,NULL,PennController,44,_Trial_,End,1746121379708,g_p9,a,NULL
1746122180,5025dea2536540e46bff95ed53dd6987,PennController,33,0,trials-gumball,NULL,PennController,45,_Trial_,Start,1746121379711,g_p3,a,NULL
1746122180,5025dea2536540e46bff95ed53dd6987,PennController,33,0,trials-gumball,NULL,Scale,slider-1,Default,0,1746121379716,g_p3,a,slider
1746122180,5025dea2536540e46bff95ed53dd6987,PennController,33,0,trials-gumball,NULL,Scale,slider-3,Default,0,1746121379718,g_p3,a,slider
1746122180,5025dea2536540e46bff95ed53dd6987,PennController,33,0,trials-gumball,NULL,Scale,slider-2,Choice,100,1746121388392,g_p3,a,180
1746122180,5025dea2536540e46bff95ed53dd6987,PennController,33,0,trials-gumball,NULL,PennController,45,_Trial_,End,1746121393140,g_p3,a,NULL
1746122180,5025dea2536540e46bff95ed53dd6987,PennController,34,0,trials-gumball,NULL,PennController,46,_Trial_,Start,1746121393143,g_p3,a,NULL
1746122180,5025dea2536540e46bff95ed53dd6987,PennController,34,0,trials-gumball,NULL,Selector,selection,Selection,correct,1746121394842,g_p3,a,correct;incorrect
1746122180,5025dea2536540e46bff95ed53dd6987,PennController,34,0,trials-gumball,NULL,PennController,46,_Trial_,End,1746121396026,g_p3,a,NULL
1746122180,5025dea2536540e46bff95ed53dd6987,PennController,35,0,trials-gumball,NULL,PennController,47,_Trial_,Start,1746121396028,g_p8,a,NULL
1746122180,5025dea2536540e46bff95ed53dd6987,PennController,35,0,trials-gumball,NULL,Scale,slider-1,Choice,100,1746121406417,g_p8,a,840
1746122180,5025dea2536540e46bff95ed53dd6987,PennController,35,0,trials-gumball,NULL,Scale,slider-2,Choice,100,1746121409577,g_p8,a,142
1746122180,5025dea2536540e46bff95ed53dd6987,PennController,35,0,trials-gumball,NULL,Scale,slider-3,Choice,0,1746121412536,g_p8,a,376
1746122180,5025dea2536540e46bff95ed53dd6987,PennController,35,0,trials-gumball,NULL,PennController,47,_Trial_,End,1746121418298,g_p8,a,NULL
1746122180,5025dea2536540e46bff95ed53dd6987,PennController,36,0,trials-gumball,NULL,PennController,48,_Trial_,Start,1746121418301,g_p2,a,NULL
1746122180,5025dea2536540e46bff95ed53dd6987,PennController,36,0,trials-gumball,NULL,Scale,slider-1,Default,0,1746121418305,g_p2,a,slider
1746122180,5025dea2536540e46bff95ed53dd6987,PennController,36,0,trials-gumball,NULL,Scale,slider-3,Default,0,1746121418306,g_p2,a,slider
1746122180,5025dea2536540e46bff95ed53dd6987,PennController,36,0,trials-gumball,NULL,Scale,slider-2,Choice,100,1746121424849,g_p2,a,172
1746122180,5025dea2536540e46bff95ed53dd6987,PennController,36,0,trials-gumball,NULL,PennController,48,_Trial_,End,1746121431172,g_p2,a,NULL
# 13. Comments.
1746122180,5025dea2536540e46bff95ed53dd6987,PennController,37,0,break-1,NULL,PennController,9,_Trial_,Start,1746121431173,NULL
1746122180,5025dea2536540e46bff95ed53dd6987,PennController,37,0,break-1,NULL,PennController,9,_Trial_,End,1746121433386,NULL
1746122180,5025dea2536540e46bff95ed53dd6987,PennController,38,0,instruction-unk-election,NULL,PennController,10,_Trial_,Start,1746121433388,NULL
1746122180,5025dea2536540e46bff95ed53dd6987,PennController,38,0,instruction-unk-election,NULL,PennController,10,_Trial_,End,1746121503019,NULL
